timestamp,id,acc_x,acc_y,acc_z,gyro_x,gyro_y,gyro_z
2026-05-10 11:30:24.330,1,0.48752844,0.18976717,0.6269268,0.6818783,-1.752267,-0.37186423
2026-05-10 11:30:24.340,2,0.3857847,0.13134913,0.5379887,0.5754350500000001,-1.6354389999999999,-0.302760095
2026-05-10 11:30:24.350,3,0.28404096,0.07293109,0.4490506,0.4689918,-1.518611,-0.23365596
2026-05-10 11:30:24.360,4,0.28404096,0.07293109,0.4490506,0.4689918,-1.518611,-0.23365596
2026-05-10 11:30:24.370,5,0.28404096,0.07293109,0.4490506,0.4689918,-1.518611,-0.23365596
2026-05-10 11:30:24.380,6,0.28404096,0.07293109,0.4490506,0.4689918,-1.518611,-0.23365596
2026-05-10 11:30:24.390,7,0.28404096,0.07293109,0.4490506,0.4689918,-1.518611,-0.23365596
2026-05-10 11:30:24.400,8,0.28404096,0.07293109,0.4490506,0.4689918,-1.518611,-0.23365596
2026-05-10 11:30:24.410,9,0.28404096,0.07293109,0.4490506,0.4689918,-1.518611,-0.23365596
2026-05-10 11:30:24.420,10,0.28404096,0.07293109,0.4490506,0.4689918,-1.518611,-0.23365596
2026-05-10 11:30:24.430,11,0.28404096,0.07293109,0.4490506,0.4689918,-1.518611,-0.23365596
2026-05-10 11:30:24.440,12,0.22417467,0.0522134125,0.3834217525,0.4689918,-1.518611,-0.23365596
2026-05-10 11:30:24.450,13,0.20421924,0.04530752,0.36154547,0.37965274,-1.6719382,0.053297993
2026-05-10 11:30:24.460,14,0.20421924,0.04530752,0.36154547,0.37965274,-1.6719382,0.053297993
2026-05-10 11:30:24.470,15,0.20421924,0.04530752,0.36154547,0.37965274,-1.6719382000000003,0.05329799300000001
2026-05-10 11:30:24.480,16,0.20421924,0.04530752,0.36154547,0.37965274,-1.6719382,0.053297993
2026-05-10 11:30:24.490,17,0.2186713,0.0291480415,0.341849205,0.37965274,-1.6719382,0.053297993
2026-05-10 11:30:24.500,18,0.23312336,0.012988563,0.32215294,0.37965274,-1.6719382000000003,0.05329799300000001
2026-05-10 11:30:24.510,19,0.23312336,0.012988563,0.32215294,0.37965274,-1.6719382,0.053297993
2026-05-10 11:30:24.520,20,0.23312336,0.012988563,0.32215294,0.37965274,-1.6719382,0.053297993
2026-05-10 11:30:24.530,21,0.23312336,0.012988563,0.32215294,0.37965274,-1.6719382,0.053297993
2026-05-10 11:30:24.540,22,0.23312336,0.012988563,0.32215294,0.37965274,-1.6719382000000003,0.05329799300000001
2026-05-10 11:30:24.550,23,0.23312336,0.012988563,0.32215294,0.37965274,-1.6719382,0.053297993
2026-05-10 11:30:24.560,24,0.23312336,0.012988563,0.32215294,0.37965274,-1.6719382,0.053297993
2026-05-10 11:30:24.570,25,0.23312336,0.012988563,0.32215294,0.37965274,-1.6719382,0.053297993
2026-05-10 11:30:24.580,26,0.23312336,0.012988563,0.32215294,0.37965274,-1.6719382000000003,0.05329799300000001
2026-05-10 11:30:24.590,27,0.23312336,0.012988563,0.32215294,0.37965274,-1.6719382,0.053297993
2026-05-10 11:30:24.600,28,0.23312336,0.012988563,0.32215294,0.37965274,-1.6719382,0.053297993
2026-05-10 11:30:24.610,29,0.2487645125,0.0011586047500000002,0.30805151,0.375796655,-1.7363081,0.10976484975
2026-05-10 11:30:24.620,30,0.29568797,-0.03433127,0.26574722,0.3642284,-1.9294178,0.27916542
2026-05-10 11:30:24.630,31,0.29568797,-0.03433127,0.26574722,0.37685294999999996,-2.0444131999999997,0.38021271333333334
2026-05-10 11:30:24.640,32,0.29568797,-0.03433127,0.26574722,0.40210205,-2.274404,0.5823073
2026-05-10 11:30:24.650,33,0.29568797,-0.03433127,0.26574722,0.40210205,-2.274404,0.5823073
2026-05-10 11:30:24.660,34,0.29568797,-0.03433127,0.26574722,0.40210205,-2.274404,0.5823073
2026-05-10 11:30:24.670,35,0.29568797,-0.03433127,0.26574722,0.40210205000000004,-2.274404,0.5823073
2026-05-10 11:30:24.680,36,0.29568797,-0.03433127,0.26574722,0.40210205,-2.274404,0.5823073
2026-05-10 11:30:24.690,37,0.29568797,-0.03433127,0.26574722,0.40210205,-2.274404,0.5823073
2026-05-10 11:30:24.700,38,0.29568797,-0.03433127,0.26574722,0.40210205,-2.274404,0.5823073
2026-05-10 11:30:24.710,39,0.29568797,-0.03433127,0.26574722,0.40210205,-2.274404,0.5823073
2026-05-10 11:30:24.720,40,0.29568797,-0.03433127,0.26574722,0.40210205000000004,-2.274404,0.5823073
2026-05-10 11:30:24.730,41,0.29568797,-0.03433127,0.26574722,0.40210205,-2.274404,0.5823073
2026-05-10 11:30:24.740,42,0.29568797,-0.03433127,0.26574722,0.40210205,-2.274404,0.5823073
2026-05-10 11:30:24.750,43,0.29568797,-0.03433127,0.26574722,0.40210205,-2.274404,0.5823073
2026-05-10 11:30:24.760,44,0.29568797,-0.03433127,0.26574722,0.40210205,-2.274404,0.5823073
2026-05-10 11:30:24.770,45,0.29568797,-0.03433127,0.26574722,0.40210205000000004,-2.274404,0.5823073
2026-05-10 11:30:24.780,46,0.3241804775,-0.038569322999999996,0.2384742875,0.4073325825,-2.3060163,0.61250695
2026-05-10 11:30:24.790,47,0.409658,-0.051283482,0.15665549,0.42302418,-2.4008532,0.7031059
2026-05-10 11:30:24.800,48,0.409658,-0.051283482,0.15665549,0.4311181433333333,-2.4976752999999996,0.7631743166666666
2026-05-10 11:30:24.810,49,0.409658,-0.051283482,0.15665549,0.44730607,-2.6913195,0.88331115
2026-05-10 11:30:24.820,50,0.409658,-0.051283482,0.15665549,0.44730607,-2.6913195,0.88331115
2026-05-10 11:30:24.830,51,0.409658,-0.051283482,0.15665549,0.44730607,-2.6913195,0.88331115
2026-05-10 11:30:24.840,52,0.409658,-0.051283482,0.15665549,0.44730607,-2.6913195,0.88331115
2026-05-10 11:30:24.850,53,0.409658,-0.051283482,0.15665549,0.44730607,-2.6913195,0.88331115
2026-05-10 11:30:24.860,54,0.409658,-0.051283482,0.15665549,0.44730607,-2.6913195,0.88331115
2026-05-10 11:30:24.870,55,0.409658,-0.051283482,0.15665549,0.44730607,-2.6913195,0.88331115
2026-05-10 11:30:24.880,56,0.409658,-0.051283482,0.15665549,0.44730607,-2.6913195,0.88331115
2026-05-10 11:30:24.890,57,0.409658,-0.051283482,0.15665549,0.44730607,-2.6913195,0.88331115
2026-05-10 11:30:24.900,58,0.409658,-0.051283482,0.15665549,0.44730607,-2.6913195,0.88331115
2026-05-10 11:30:24.910,59,0.48460143,-0.091255326,0.15586275500000002,0.463952155,-2.7960828500000003,0.908509345
2026-05-10 11:30:24.920,60,0.55954486,-0.13122717,0.15507002,0.48059824,-2.9008462,0.93370754
2026-05-10 11:30:24.930,61,0.55954486,-0.13122717,0.15507002,0.48059824,-2.9008462,0.93370754
2026-05-10 11:30:24.940,62,0.55954486,-0.13122717,0.15507002,0.48059824,-2.9008462,0.93370754
2026-05-10 11:30:24.950,63,0.55954486,-0.13122717,0.15507002,0.5177082933333333,-2.9888108,0.9380853933333334
2026-05-10 11:30:24.960,64,0.55954486,-0.13122717,0.15507002,0.5919284,-3.16474,0.9468411
2026-05-10 11:30:24.970,65,0.55954486,-0.13122717,0.15507002,0.5919284,-3.16474,0.9468411
2026-05-10 11:30:24.980,66,0.55954486,-0.13122717,0.15507002,0.5919284,-3.16474,0.9468411
2026-05-10 11:30:24.990,67,0.55954486,-0.13122717,0.15507002,0.5919284,-3.16474,0.9468411
2026-05-10 11:30:25.000,68,0.55954486,-0.13122717,0.15507002,0.5919284,-3.16474,0.9468411
2026-05-10 11:30:25.010,69,0.55954486,-0.13122717,0.15507002,0.5919284,-3.16474,0.9468411
2026-05-10 11:30:25.020,70,0.55954486,-0.13122717,0.15507002,0.5919284,-3.16474,0.9468411
2026-05-10 11:30:25.030,71,0.55954486,-0.13122717,0.15507002,0.5919284,-3.16474,0.9468411
2026-05-10 11:30:25.040,72,0.55954486,-0.13122717,0.15507002,0.5919284,-3.16474,0.9468411
2026-05-10 11:30:25.050,73,0.54878203,-0.13549571500000002,0.166473125,0.68256553,-3.3034064499999998,0.952567985
2026-05-10 11:30:25.060,74,0.5380192,-0.13976426,0.17787623,0.77320266,-3.4420729,0.95829487
2026-05-10 11:30:25.070,75,0.5380192,-0.13976426,0.17787623,0.77320266,-3.4420729,0.95829487
2026-05-10 11:30:25.080,76,0.5380192,-0.13976426,0.17787623,0.77320266,-3.4420729,0.95829487
2026-05-10 11:30:25.090,77,0.5380192,-0.13976426,0.17787623,0.77320266,-3.4420729,0.95829487
2026-05-10 11:30:25.100,78,0.5380192,-0.13976426,0.17787623,0.77320266,-3.4420729,0.95829487
2026-05-10 11:30:25.110,79,0.5380192,-0.13976426,0.17787623,0.77320266,-3.4420729,0.95829487
2026-05-10 11:30:25.120,80,0.5380192,-0.13976426,0.17787623,0.77320266,-3.4420729,0.95829487
2026-05-10 11:30:25.130,81,0.5150097333333333,-0.13870728666666665,0.13201990333333333,0.77320266,-3.4420729,0.95829487
2026-05-10 11:30:25.140,82,0.503505,-0.1381788,0.10909174,0.77320266,-3.4420729,0.95829487
2026-05-10 11:30:25.150,83,0.503505,-0.1381788,0.10909174,0.77320266,-3.4420729,0.95829487
2026-05-10 11:30:25.160,84,0.503505,-0.1381788,0.10909174,0.77320266,-3.4420729,0.95829487
2026-05-10 11:30:25.170,85,0.503505,-0.1381788,0.10909174,0.96990126,-3.7583485,0.9987647000000001
2026-05-10 11:30:25.180,86,0.5486702333333333,-0.16352580333333333,-2.0323333333335802e-05,0.6603453083333333,-3.7411933333333334,1.1440997
2026-05-10 11:30:25.190,87,0.5938354666666666,-0.18887280666666667,-0.10913238666666668,0.35078935666666666,-3.7240381666666664,1.2894347
2026-05-10 11:30:25.200,88,0.6390007,-0.21421981,-0.21824445,0.041233405,-3.706883,1.4347697
2026-05-10 11:30:25.210,89,0.6390007,-0.21421981,-0.21824445,0.041233405,-3.706883,1.4347697
2026-05-10 11:30:25.220,90,0.6390007,-0.21421981,-0.21824445,0.041233405,-3.706883,1.4347696999999997
2026-05-10 11:30:25.230,91,0.6390007,-0.21421981,-0.21824445,0.041233405,-3.706883,1.4347697
2026-05-10 11:30:25.240,92,0.6390007,-0.21421981,-0.21824445,0.041233405,-3.706883,1.4347696999999997
2026-05-10 11:30:25.250,93,0.6390007,-0.21421981,-0.21824445,0.041233405,-3.706883,1.4347697
2026-05-10 11:30:25.260,94,0.6801616,-0.24568507750000002,-0.1345505325,-0.25301274875,-3.687755225,1.529950175
2026-05-10 11:30:25.270,95,0.6938819,-0.2561735,-0.10665256,-0.3510948,-3.6813793,1.5616770000000002
2026-05-10 11:30:25.280,96,0.70505635,-0.26103658750000003,-0.0817883054,-0.38091266,-3.717267675,1.58916595
2026-05-10 11:30:25.290,97,0.7385797,-0.27562585,-0.0071955416,-0.47036624,-3.8249328,1.6716328
2026-05-10 11:30:25.300,98,0.7385797,-0.27562585,-0.0071955416,-0.47036624,-3.8249328000000005,1.6716328
2026-05-10 11:30:25.310,99,0.7385797,-0.27562585,-0.0071955416,-0.47036624,-3.8249328,1.6716328
2026-05-10 11:30:25.320,100,0.7385797,-0.27562585,-0.0071955416,-0.47036624,-3.8249328,1.6716328
2026-05-10 11:30:25.330,101,0.7385797,-0.27562585,-0.0071955416,-0.47036624,-3.8249328000000005,1.6716328
2026-05-10 11:30:25.340,102,0.7385797,-0.27562585,-0.0071955416,-0.47036624,-3.8249328,1.6716328
2026-05-10 11:30:25.350,103,0.7385797,-0.27562585,-0.0071955416,-0.47036624,-3.8249328,1.6716328
2026-05-10 11:30:25.360,104,0.7385797,-0.27562585,-0.0071955416,-0.47036624,-3.8249328,1.6716328
2026-05-10 11:30:25.370,105,0.7385797,-0.27562585,-0.0071955416,-0.47036624,-3.8249328,1.6716328
2026-05-10 11:30:25.380,106,0.7385797,-0.27562585,-0.0071955416,-0.47036624,-3.8249328000000005,1.6716328
2026-05-10 11:30:25.390,107,0.7385797,-0.27562585,-0.0071955416,-0.47036624,-3.8249328,1.6716328
2026-05-10 11:30:25.400,108,0.7385797,-0.27562585,-0.0071955416,-0.47036624,-3.8249328,1.6716328
2026-05-10 11:30:25.410,109,0.7385797,-0.27562585,-0.0071955416,-0.47036624,-3.8249328,1.6716328
2026-05-10 11:30:25.420,110,0.7385797,-0.27562585,-0.0071955416,-0.47036624,-3.8249328,1.6716328
2026-05-10 11:30:25.430,111,0.7385797,-0.27562585,-0.0071955416,-0.47036624,-3.8249328000000005,1.6716328
2026-05-10 11:30:25.440,112,0.7385797,-0.27562585,-0.0071955416,-0.47036624,-3.8249328,1.6716328
2026-05-10 11:30:25.450,113,0.7385797,-0.27562585,-0.0071955416,-0.47036624,-3.8249328,1.6716328
2026-05-10 11:30:25.460,114,0.7385797,-0.27562585,-0.0071955416,-0.47036624,-3.8249328,1.6716328
2026-05-10 11:30:25.470,115,0.7385797,-0.27562585,-0.0071955416,-0.47036624,-3.8249328000000005,1.6716328
2026-05-10 11:30:25.480,116,0.7385797,-0.27562585,-0.0071955416,-0.47036624,-3.8249328,1.6716328
2026-05-10 11:30:25.490,117,0.7385797,-0.27562585,-0.0071955416,-0.47036624,-3.8249328,1.6716328
2026-05-10 11:30:25.500,118,0.7385797,-0.27562585,-0.0071955416,-0.47036624,-3.8249328,1.6716328
2026-05-10 11:30:25.510,119,0.7385797,-0.27562585,-0.0071955416,-0.47036624,-3.8249328,1.6716328
2026-05-10 11:30:25.520,120,0.7385797,-0.27562585,-0.0071955416,-0.47036624,-3.8249328000000005,1.6716328
2026-05-10 11:30:25.530,121,0.7385797,-0.27562585,-0.0071955416,-0.47036624,-3.8249328,1.6716328
2026-05-10 11:30:25.540,122,0.7385797,-0.27562585,-0.0071955416,-0.22327125,-4.277584,1.7863227
2026-05-10 11:30:25.550,123,0.7385797,-0.27562585,-0.0071955416,-0.22327125,-4.277584,1.7863227
2026-05-10 11:30:25.560,124,0.7385797,-0.27562585,-0.0071955416,-0.22327125,-4.277584,1.7863227000000002
2026-05-10 11:30:25.570,125,0.7385797,-0.27562585,-0.0071955416,-0.22327125,-4.277584,1.7863227
2026-05-10 11:30:25.580,126,0.7385797,-0.27562585,-0.0071955416,-0.22327125,-4.277584,1.7863227
2026-05-10 11:30:25.590,127,0.7385797,-0.27562585,-0.0071955416,-0.22327125,-4.277584,1.7863227
2026-05-10 11:30:25.600,128,0.7385797,-0.27562585,-0.0071955416,-0.22327125,-4.277584,1.7863227
2026-05-10 11:30:25.610,129,0.7385797,-0.27562585,-0.0071955416,-0.22327125,-4.277584,1.7863227000000002
2026-05-10 11:30:25.620,130,0.7385797,-0.27562585,-0.0071955416,-0.22327125,-4.277584,1.7863227
2026-05-10 11:30:25.630,131,0.7653952749999999,-0.2810682375,0.0588601438,-0.22327125,-4.277584,1.7863227
2026-05-10 11:30:25.640,132,0.845842,-0.2973954,0.2570272,-0.22327125,-4.277584,1.7863227
2026-05-10 11:30:25.650,133,0.8458419999999999,-0.2973954,0.2570272,-0.22327125,-4.277584,1.7863227000000002
2026-05-10 11:30:25.660,134,0.845842,-0.2973954,0.2570272,-0.22327125,-4.277584,1.7863227
2026-05-10 11:30:25.670,135,0.845842,-0.2973954,0.2570272,-0.22327125,-4.277584,1.7863227
2026-05-10 11:30:25.680,136,0.845842,-0.2973954,0.2570272,-0.22327125,-4.277584,1.7863227
2026-05-10 11:30:25.690,137,0.8458419999999999,-0.2973954,0.2570272,-0.22327125,-4.277584,1.7863227000000002
2026-05-10 11:30:25.700,138,0.8800716666666667,-0.30585118,0.36589534666666673,-0.22327125,-4.277584,1.7863227000000002
2026-05-10 11:30:25.710,139,0.8971865,-0.31007907,0.42032942,-0.22327125,-4.277584,1.7863227
2026-05-10 11:30:25.720,140,0.8971865,-0.31007907,0.42032942,-0.22327125,-4.277584,1.7863227000000002
2026-05-10 11:30:25.730,141,0.8971865,-0.31007907,0.42032942,-0.22327125,-4.277584,1.7863227
2026-05-10 11:30:25.740,142,0.8971865,-0.31007907,0.42032942,0.08735373,-4.5489607,1.8330538
2026-05-10 11:30:25.750,143,0.8971865,-0.31007907,0.42032942,0.08735373,-4.5489607,1.8330538
2026-05-10 11:30:25.760,144,0.95621435,-0.28928517,0.424506485,0.436386865,-4.713207000000001,1.88994065
2026-05-10 11:30:25.770,145,1.0152422,-0.26849127,0.42868354999999997,0.7854199999999999,-4.8774533,1.9468275000000002
2026-05-10 11:30:25.780,146,1.083295,-0.22915971,0.30050534,1.0048733,-4.841107,2.0150917
2026-05-10 11:30:25.790,147,1.083295,-0.22915971,0.30050534,1.0048733,-4.841107,2.0150917
2026-05-10 11:30:25.800,148,1.083295,-0.22915971,0.30050534,1.0048733,-4.841107,2.0150917
2026-05-10 11:30:25.810,149,1.0905819499999998,-0.19955432499999998,0.21373198,0.8589529,-4.64326315,2.0808361
2026-05-10 11:30:25.820,150,1.1350052,-0.14647196,0.08043153,0.33460143,-4.180762,2.2892175
2026-05-10 11:30:25.830,151,1.1350052,-0.14647196,0.08043153,0.33460143,-4.180762,2.2892175
2026-05-10 11:30:25.840,152,1.1350052,-0.14647196,0.08043153,0.33460143,-4.180762,2.2892175
2026-05-10 11:30:25.850,153,1.16862005,-0.14857574,0.113040135,0.33460143,-4.180762,2.2892175
2026-05-10 11:30:25.860,154,1.179825,-0.149277,0.12390967000000001,0.33460143,-4.180762,2.2892175
2026-05-10 11:30:25.870,155,1.179825,-0.149277,0.12390967,0.33460143,-4.180762,2.2892175
2026-05-10 11:30:25.880,156,1.179825,-0.149277,0.12390967,0.33460143,-4.180762,2.2892175
2026-05-10 11:30:25.890,157,1.179825,-0.149277,0.12390967,0.14828753349999999,-4.0442335,2.37764025
2026-05-10 11:30:25.900,158,1.179825,-0.149277,0.12390967000000001,-0.038026363,-3.907705,2.466063
2026-05-10 11:30:25.910,159,1.179825,-0.149277,0.12390967,-0.038026363,-3.907705,2.466063
2026-05-10 11:30:25.920,160,1.179825,-0.149277,0.12390967,-0.038026363,-3.907705,2.466063
2026-05-10 11:30:25.930,161,1.179825,-0.149277,0.12390967000000001,-0.038026363,-3.907705,2.466063
2026-05-10 11:30:25.940,162,1.179825,-0.149277,0.12390967,-0.038026363,-3.907705,2.466063
2026-05-10 11:30:25.950,163,1.179825,-0.149277,0.12390967,-0.038026363,-3.907705,2.466063
2026-05-10 11:30:25.960,164,1.25949425,-0.114884752,0.16473522000000002,-0.3678172315,-3.81744965,2.70032975
2026-05-10 11:30:25.970,165,1.4787650999999997,0.01776525733333333,0.23314368,-0.7667885999999999,-3.7521888666666663,2.9434540666666664
2026-05-10 11:30:25.980,166,1.86696865,0.32062844,0.2909926,-0.9051496,-3.802178,2.9611692
2026-05-10 11:30:25.990,167,1.975969,0.4269761,0.2936757,-1.4143822,-3.6834029,2.8544205000000002
2026-05-10 11:30:26.000,168,2.009710866666667,0.4964111,0.32514092666666666,-2.1903082,-3.227710066666667,2.6816985333333334
2026-05-10 11:30:26.010,169,2.0265818,0.5311286,0.34087354,-2.4933991,-3.0196595,2.613129
2026-05-10 11:30:26.020,170,2.0265818,0.5311286,0.34087354,-2.4933991,-3.0196595,2.613129
2026-05-10 11:30:26.030,171,2.0265818,0.5311286,0.34087354,-2.4933991,-3.0196595,2.613129
2026-05-10 11:30:26.040,172,2.0265818,0.5311286,0.34087354,-2.4933991,-3.0196595,2.613129
2026-05-10 11:30:26.050,173,2.042863175,0.64208018,0.5512059325,-3.0525700000000002,-2.4883214,2.4857635499999997
2026-05-10 11:30:26.060,174,2.0482903,0.67906404,0.62131673,-3.2389603,-2.3112087,2.4433084
2026-05-10 11:30:26.070,175,2.0482903,0.67906404,0.62131673,-3.2389603,-2.3112087,2.4433084
2026-05-10 11:30:26.080,176,2.0482903,0.67906404,0.62131673,-3.2389603,-2.3112087,2.4433084
2026-05-10 11:30:26.090,177,2.0482903,0.67906404,0.62131673,-3.2389603,-2.3112087,2.4433084
2026-05-10 11:30:26.100,178,2.0482903,0.67906404,0.62131673,-3.2389603,-2.3112087,2.4433084
2026-05-10 11:30:26.110,179,2.0482903,0.67906404,0.62131673,-3.2389603,-2.3112087,2.4433084
2026-05-10 11:30:26.120,180,2.0482903,0.67906404,0.62131673,-3.2389603,-2.3112087,2.4433084
2026-05-10 11:30:26.130,181,2.0482903,0.67906404,0.62131673,-3.2389603,-2.3112087,2.4433084
2026-05-10 11:30:26.140,182,2.11176955,0.872474685,0.9985339325,-3.2389603,-2.3112087,2.4433084
2026-05-10 11:30:26.150,183,2.1329293,0.9369449,1.124273,-3.6910005,-1.5118915,2.1517727
2026-05-10 11:30:26.160,184,2.1329293,0.9369449,1.124273,-3.6910005,-1.5118915,2.1517727
2026-05-10 11:30:26.170,185,2.17015705,1.017239225,1.2029056,-3.6910005,-1.5118915,2.1517727
2026-05-10 11:30:26.180,186,2.2818403,1.2581222,1.4388034,-3.6361753749999997,-1.4343116249999999,2.060524725
2026-05-10 11:30:26.190,187,2.2818403,1.2581222,1.4388034,-3.4717,-1.201572,1.7867808
2026-05-10 11:30:26.200,188,2.2818403,1.2581222,1.4388034,-3.4717,-1.201572,1.7867808
2026-05-10 11:30:26.210,189,2.214199075,1.309756325,1.71910945,-3.4717,-1.201572,1.7867808
2026-05-10 11:30:26.220,190,2.191652,1.3269677,1.8125448,-3.2305990749999998,-1.193019875,1.624863325
2026-05-10 11:30:26.230,191,2.191652,1.3269677,1.8125448000000002,-2.5072963,-1.1673635,1.1391109
2026-05-10 11:30:26.240,192,2.191652,1.3269677,1.8125448,-2.5072963,-1.1673635,1.1391109
2026-05-10 11:30:26.250,193,2.1604918,1.3698055500000001,1.8787376999999998,-2.5072963,-1.1673635,1.1391109
2026-05-10 11:30:26.260,194,2.1293316,1.4126434,1.9449306,-2.18361415,-1.14529595,1.00242983
2026-05-10 11:30:26.270,195,2.1293316,1.4126434,1.9449306,-1.859932,-1.1232284,0.8657487600000001
2026-05-10 11:30:26.280,196,2.1293316,1.4126434,1.9449306,-1.859932,-1.1232284,0.86574876
2026-05-10 11:30:26.290,197,2.1293316,1.4126434,1.9449306,-1.859932,-1.1232284,0.86574876
2026-05-10 11:30:26.300,198,2.1293316,1.4126434,1.9449306,-1.859932,-1.1232284,0.8657487600000001
2026-05-10 11:30:26.310,199,2.1293316,1.4126434,1.9449306,-1.859932,-1.1232284,0.86574876
2026-05-10 11:30:26.320,200,2.1293316,1.4126434,1.9449306,-1.859932,-1.1232284,0.86574876
2026-05-10 11:30:26.330,201,2.1112816,1.4992948,1.7050995,-0.6415612,-0.88438016,0.24510968
2026-05-10 11:30:26.340,202,2.1112816,1.4992948000000001,1.7050995,-0.6415612,-0.88438016,0.24510968
2026-05-10 11:30:26.350,203,2.1112816,1.4992948,1.7050995,-0.5064072700000001,-0.81073272,0.11274281
2026-05-10 11:30:26.360,204,1.6465596,1.5195398,1.3571523,0.23457226,0.46975538,-1.3211488
2026-05-10 11:30:26.370,205,1.6465596,1.5195397999999998,1.3571523,0.23457226,0.46975538,-1.3211488
2026-05-10 11:30:26.380,206,1.6465596,1.5195398,1.3571523,0.23457226,0.46975538,-1.3211488
2026-05-10 11:30:26.390,207,1.624744275,1.5181373,1.346587675,0.22995259,0.532521775,-1.35776255
2026-05-10 11:30:26.400,208,1.5592983,1.5139298000000003,1.3148938,0.21609358,0.7208209599999998,-1.4676038
2026-05-10 11:30:26.410,209,1.5592983,1.5139298,1.3148938,0.21609358,0.72082096,-1.4676038
2026-05-10 11:30:26.420,210,1.5592983,1.5139298,1.3148938,0.21609358,0.72082096,-1.4676038
2026-05-10 11:30:26.430,211,2.0514307,1.48475125,1.4156008999999998,1.15377179,1.46752743,-2.78974515
2026-05-10 11:30:26.440,212,2.5435631,1.4555727,1.516308,2.09145,2.2142339,-4.1118865
2026-05-10 11:30:26.450,213,2.5435631,1.4555727,1.516308,2.09145,2.2142339,-4.1118865
2026-05-10 11:30:26.460,214,2.5435631,1.4555727,1.516308,2.09145,2.2142339,-4.1118865
2026-05-10 11:30:26.470,215,2.5435631,1.4555727,1.516308,2.09145,2.2142339,-4.1118865
2026-05-10 11:30:26.480,216,2.5435631,1.4555727,1.5163079999999998,2.09145,2.2142339,-4.1118865
2026-05-10 11:30:26.490,217,2.7573255999999997,1.3550485,1.5300587,2.3244187,2.1755966,-4.3233986
2026-05-10 11:30:26.500,218,2.80431,1.3072103,1.4789886,2.8708375999999998,2.09778765,-4.84859015
2026-05-10 11:30:26.510,219,2.80431,1.3072103,1.4789886,3.1842878,2.058616,-5.1622696
2026-05-10 11:30:26.520,220,2.8043099999999996,1.3072103,1.4789886,3.1842878,2.058616,-5.1622696
2026-05-10 11:30:26.530,221,2.80431,1.3072103,1.4789886,3.1842878,2.058616,-5.1622696
2026-05-10 11:30:26.540,222,2.80431,1.3072103,1.4789886,3.1842878,2.058616,-5.1622696
2026-05-10 11:30:26.550,223,2.8077248666666663,1.2875344333333334,1.4237822666666666,3.1842878,2.058616,-5.1622696
2026-05-10 11:30:26.560,224,2.8094323,1.2776965,1.3961791,3.2307899,2.07617835,-5.2416058
2026-05-10 11:30:26.570,225,2.8094323,1.2776965,1.3961791,3.277292,2.0937407,-5.320942
2026-05-10 11:30:26.580,226,2.8094323,1.2776965,1.3961791,3.277292,2.0937407,-5.320942
2026-05-10 11:30:26.590,227,2.8094322999999997,1.2776965,1.3961791000000001,3.2772920000000005,2.0937407,-5.320942
2026-05-10 11:30:26.600,228,2.8094323,1.2776965,1.3961791,3.277292,2.0937407,-5.320942
2026-05-10 11:30:26.610,229,3.0749357,1.1852521,1.1657388,3.0079005,2.6477954,-5.746104
2026-05-10 11:30:26.620,230,3.258157633333333,1.1317937,1.1581773999999998,3.0079005,2.6477954,-5.746104
2026-05-10 11:30:26.630,231,3.3497686,1.1050645,1.1543967,3.0079005,2.6477954,-5.746104
2026-05-10 11:30:26.640,232,3.3497686,1.1050645,1.1543967,2.9082531,2.7972283,-5.872018499999999
2026-05-10 11:30:26.650,233,3.4145284,0.954598375,1.189703625,2.665548675,3.238272975,-6.427104225
2026-05-10 11:30:26.660,234,3.436115,0.904443,1.2014726,2.617863,3.3354769,-6.5701613
2026-05-10 11:30:26.670,235,3.4361149999999996,0.904443,1.2014726,2.617863,3.3354769,-6.5701613
2026-05-10 11:30:26.680,236,3.2525831,0.62390832,1.3317698,2.6757042749999997,3.3898057500000003,-6.741318075
2026-05-10 11:30:26.690,237,2.93602495,0.27661674,1.4111494,3.20291925,3.5881842,-7.38799515
2026-05-10 11:30:26.700,238,2.8508979999999995,0.19202339999999998,1.4231318,3.3208163,3.5999815,-7.4323974
2026-05-10 11:30:26.710,239,2.850898,0.1920234,1.4231318,3.3208163,3.5999815,-7.4323974
2026-05-10 11:30:26.720,240,2.850898,0.1920234,1.4231318,3.4944928500000003,3.5666512,-7.375090625
2026-05-10 11:30:26.730,241,2.6420444,0.051039565,1.3496214,4.0155225,3.4666603,-7.2031703
2026-05-10 11:30:26.740,242,2.1260997333333336,-0.34837399666666663,1.0434145133333332,4.0155225,3.4666602999999996,-7.2031703
2026-05-10 11:30:26.750,243,1.9725542,-0.47758886,0.92706627,4.0155225,3.4666603,-7.2031703
2026-05-10 11:30:26.760,244,1.9725542,-0.47758886,0.92706627,4.0155225,3.4666603,-7.2031703
2026-05-10 11:30:26.770,245,1.9725542,-0.47758886,0.92706627,4.2948788250000005,3.313524025,-6.9121313
2026-05-10 11:30:26.780,246,1.9725542,-0.47758886,0.92706627,4.3879976,3.2624786,-6.815118299999999
2026-05-10 11:30:26.790,247,1.91852665,-0.52390253,0.882673485,4.43808865,3.2124639999999998,-6.7259319
2026-05-10 11:30:26.800,248,1.6001085750000001,-0.9352680499999999,0.65767557,4.654373175,2.9462031,-6.2911863750000006
2026-05-10 11:30:26.810,249,1.5119784,-1.056952,0.59747386,5.037653,2.447279,-5.8071904
2026-05-10 11:30:26.820,250,1.5119784,-1.056952,0.59747386,5.037653,2.447279,-5.8071904
2026-05-10 11:30:26.830,251,1.5119784,-1.056952,0.59747386,5.037653,2.447279,-5.8071904
2026-05-10 11:30:26.840,252,1.5119784,-1.056952,0.59747386,5.037653,2.447279,-5.8071904
2026-05-10 11:30:26.850,253,1.4528896,-1.1205735666666665,0.5481620533333333,5.1809517666666665,2.2249749333333333,-5.708332033333334
2026-05-10 11:30:26.860,254,1.334712,-1.2478167,0.44953844,5.4675493,1.7803668,-5.5106153
2026-05-10 11:30:26.870,255,1.334712,-1.2478167,0.44953844,5.4675493,1.7803668,-5.5106153
2026-05-10 11:30:26.880,256,1.334712,-1.2478167,0.44953844,5.467549299999999,1.7803668000000001,-5.5106153
2026-05-10 11:30:26.890,257,1.334712,-1.2478167,0.44953844,5.4675493,1.7803668,-5.5106153
2026-05-10 11:30:26.900,258,1.334712,-1.2478167,0.44953844,5.54680905,1.60176505,-5.4603334750000005
2026-05-10 11:30:26.910,259,0.7588704749999999,-1.4156619,0.10625620399999999,5.838879075,-0.11766792500000003,-4.9200615249999995
2026-05-10 11:30:26.920,260,0.5669233,-1.4716103,-0.008171208,5.856976,-0.5122105,-4.7902527
2026-05-10 11:30:26.930,261,0.5669233,-1.4716103,-0.008171208,5.856976,-0.5122105,-4.7902527
2026-05-10 11:30:26.940,262,0.5669233,-1.4716103,-0.008171208,5.856976,-0.5122105,-4.7902527
2026-05-10 11:30:26.950,263,-0.52858771,-1.4569751999999998,-0.3554475766666667,3.485953466666667,-0.5436191866666666,-3.0554462
2026-05-10 11:30:26.960,264,-0.739433335,-1.4582253,-0.40602980499999997,2.7398834,-0.34513888,-2.4726298
2026-05-10 11:30:26.970,265,-0.85206187,-1.4624634,-0.43935493,2.7398834,-0.34513888,-2.4726298
2026-05-10 11:30:26.980,266,-0.85206187,-1.4624634,-0.43935493,2.7398834,-0.34513888,-2.4726298
2026-05-10 11:30:26.990,267,-0.85206187,-1.4624634,-0.43935493,2.7398834,-0.34513888,-2.4726298
2026-05-10 11:30:27.000,268,-0.85206187,-1.4624634,-0.43935493,2.7398834,-0.34513888,-2.4726298
2026-05-10 11:30:27.010,269,-0.85206187,-1.4624634,-0.43935493,2.7398834,-0.34513888,-2.4726298
2026-05-10 11:30:27.020,270,-0.85206187,-1.4624634,-0.43935493,2.7398834,-0.34513888,-2.4726298
2026-05-10 11:30:27.030,271,-1.1294255500000001,-1.45290495,-0.47313733999999996,2.319379025,-0.2575942504,-1.986075635
2026-05-10 11:30:27.040,272,-1.2707449,-1.4319129,-0.46380752,1.0578659,0.0050396384,-0.52641314
2026-05-10 11:30:27.050,273,-1.2707449,-1.4319128999999997,-0.46380752,1.0578659,0.0050396384,-0.52641314
2026-05-10 11:30:27.060,274,-1.2707449,-1.4319129,-0.46380752,1.0578659,0.0050396384,-0.52641314
2026-05-10 11:30:27.070,275,-1.268183725,-1.409640225,-0.45347156,1.0578659,0.0050396384,-0.52641314
2026-05-10 11:30:27.080,276,-1.26733,-1.402216,-0.45002624,1.0578659,0.0050396384,-0.52641314
2026-05-10 11:30:27.090,277,-1.26733,-1.402216,-0.45002623999999997,1.0578659,0.0050396384,-0.52641314
2026-05-10 11:30:27.100,278,-1.26733,-1.402216,-0.45002624,0.45081854,0.044593163,0.35705075
2026-05-10 11:30:27.110,279,-1.26733,-1.402216,-0.45002624,0.45081854,0.044593163,0.35705075
2026-05-10 11:30:27.120,280,-1.2073468333333335,-1.3900607999999999,-0.43679376000000003,0.45081854,0.044593163,0.35705075
2026-05-10 11:30:27.130,281,-1.0873805,-1.3657504,-0.4103288,-0.09609673000000002,0.13335952325,1.1522827625
2026-05-10 11:30:27.140,282,-1.0269044250000001,-1.364058225,-0.40107521749999997,-0.61132341,0.25450173,1.8787924
2026-05-10 11:30:27.150,283,-0.8454762,-1.3589817,-0.37331447,-0.944245,0.34605515,2.3402247
2026-05-10 11:30:27.160,284,-0.7064436749999999,-1.3678542,-0.350127155,-0.944245,0.34605515,2.3402247
2026-05-10 11:30:27.170,285,-0.6600995,-1.3708117,-0.34239805000000006,-0.944245,0.34605515,2.3402247
2026-05-10 11:30:27.180,286,-0.6600995,-1.3708117,-0.34239805,-1.1925617,0.43440154,2.6780332
2026-05-10 11:30:27.190,287,-0.6600995,-1.3708117,-0.34239805,-1.4408784,0.52274793,3.0158417
2026-05-10 11:30:27.200,288,-0.6600995,-1.3708117,-0.34239805000000006,-1.4408784,0.52274793,3.0158417000000006
2026-05-10 11:30:27.210,289,-0.6600995,-1.3708117,-0.34239805,-1.4408784,0.52274793,3.0158417
2026-05-10 11:30:27.220,290,-0.5871836575,-1.370628775,-0.32677213250000003,-1.4408784,0.52274793,3.0158417
2026-05-10 11:30:27.230,291,-0.3684361299999999,-1.37008,-0.27989438,-1.4408784,0.52274793,3.0158417000000006
2026-05-10 11:30:27.240,292,-0.36843613,-1.37008,-0.27989438,-1.9209038999999999,0.6961573050000001,3.697338275
2026-05-10 11:30:27.250,293,-0.36843613,-1.37008,-0.27989438,-2.0809124,0.75396043,3.9245038
2026-05-10 11:30:27.260,294,-0.36843613,-1.37008,-0.27989438,-2.0809124,0.75396043,3.9245038
2026-05-10 11:30:27.270,295,-0.3684361299999999,-1.37008,-0.27989438,-2.0809124,0.7539604299999999,3.9245038
2026-05-10 11:30:27.280,296,-0.32050650249999996,-1.36911955,-0.2721500225,-2.16490635,0.78564906,4.0455696
2026-05-10 11:30:27.290,297,-0.1136804075,-1.3667413,-0.2381998675,-2.51080875,0.9203830125,4.534528925
2026-05-10 11:30:27.300,298,0.10567689666666667,-1.369084,-0.20009298333333334,-2.8463774999999996,1.0525208,4.997132133333333
2026-05-10 11:30:27.310,299,0.2700767325,-1.342166725,-0.1807727525,-3.055929675,0.8353963799999999,5.442198525
2026-05-10 11:30:27.320,300,0.3047129,-1.3326387,-0.1783031,-3.089909,0.75426584,5.5336757
2026-05-10 11:30:27.330,301,0.46805576666666665,-1.2712937,-0.2066787333333333,-3.089909,0.75426584,5.5336757
2026-05-10 11:30:27.340,302,0.7118098,-1.1271999,-0.26714975,-3.07227035,0.39820776999999996,5.5075612
2026-05-10 11:30:27.350,303,0.7118098,-1.1271999,-0.26714975,-3.0546317,0.0421497,5.4814467
2026-05-10 11:30:27.360,304,0.71726745,-1.1021069749999999,-0.2591462275,-2.957275025,-0.41577015000000006,5.445596175
2026-05-10 11:30:27.370,305,0.7257740666666667,-1.0121932,-0.21566297999999998,-2.9248228,-0.5684101,5.433646
2026-05-10 11:30:27.380,306,0.7100414,-0.9829232,-0.17671762,-2.77225915,-0.979140625,5.448535975
2026-05-10 11:30:27.390,307,0.6611971,-0.9532263,-0.17196125,-2.7214046,-1.1160508,5.4534993
2026-05-10 11:30:27.400,308,0.6611971,-0.9532263,-0.17196124999999998,-2.7214046,-1.1160508,5.4534993
2026-05-10 11:30:27.410,309,0.572960275,-0.92683758,-0.1669914475,-2.4139867,-1.5615243,5.816048
2026-05-10 11:30:27.420,310,0.5923516,-0.91919994,-0.16287535,-2.3629794,-1.5845845,6.023284
2026-05-10 11:30:27.430,311,0.5923516,-0.91919994,-0.16287535,-2.3629794,-1.5845845,6.023284
2026-05-10 11:30:27.440,312,0.8199564,-0.84666522,-0.158850725,-2.2360721999999997,-1.71027,6.2050165
2026-05-10 11:30:27.450,313,1.0475612,-0.7741305,-0.1548261,-2.109165,-1.8359555,6.386748999999999
2026-05-10 11:30:27.460,314,1.0475612,-0.7741305,-0.1548261,-2.109165,-1.8359555,6.386749
2026-05-10 11:30:27.470,315,1.0475612,-0.7741305,-0.1548261,-1.8942168,-2.0916026,6.135835999999999
2026-05-10 11:30:27.480,316,1.734125525,-0.484174575,-0.21011895749999998,-1.522008975,-2.5234078999999996,5.5008795
2026-05-10 11:30:27.490,317,1.9629803,-0.3875226,-0.22854991,-1.4695891,-2.5821273,5.372865
2026-05-10 11:30:27.500,318,1.9629803,-0.3875226,-0.22854991,-1.4695891,-2.5821273,5.372865
2026-05-10 11:30:27.510,319,1.9629803,-0.3875226,-0.22854991,-1.4695891,-2.5821273,5.372865
2026-05-10 11:30:27.520,320,2.012038075,-0.1976944575,-0.21595772,-1.2493721,-2.9622383,4.544379
2026-05-10 11:30:27.530,321,2.0082269,-0.18403512,-0.20062146,-1.2139419,-3.0308588333333333,4.358014266666667
2026-05-10 11:30:27.540,322,2.0082269,-0.18403512,-0.20062146,-1.1430815,-3.1680999,3.9852848
2026-05-10 11:30:27.550,323,1.8608097749999999,-0.137203121225,-0.143499225,-1.044808575,-3.16542735,3.96401905
2026-05-10 11:30:27.560,324,1.4185584,0.0032928751,0.02786748,-0.7499898000000002,-3.1574097,3.9002218
2026-05-10 11:30:27.570,325,1.4185584,0.0032928751,0.02786748,-0.7499898,-3.1574097,3.9002218
2026-05-10 11:30:27.580,326,1.4300987250000001,0.042837866325,-0.06302197,-0.8372672000000001,-3.01828515,4.2718569
2026-05-10 11:30:27.590,327,3.154127133333333,0.9499944666666668,-0.33556835666666673,-2.8910217333333335,-2.4876977333333334,4.665279666666667
2026-05-10 11:30:27.600,328,5.2094502,1.7994342,0.76937413,-5.618128,-2.3431263,3.741397
2026-05-10 11:30:27.610,329,5.2094502,1.7994342,0.76937413,-5.618128,-2.3431263,3.741397
2026-05-10 11:30:27.620,330,5.2094502,1.7994342,0.76937413,-5.618128,-2.3431263,3.741397
2026-05-10 11:30:27.630,331,5.2094502,1.7994342,0.76937413,-5.618128,-2.3431263,3.7413970000000005
2026-05-10 11:30:27.640,332,5.2094502,1.7994342,0.76937413,-5.618128,-2.3431263,3.741397
2026-05-10 11:30:27.650,333,5.2094502,1.7994342,0.76937413,-5.618128,-2.3431263,3.741397
2026-05-10 11:30:27.660,334,5.2094502,1.7994342,0.76937413,-5.618128,-2.3431263,3.741397
2026-05-10 11:30:27.670,335,5.2094502,1.7994342,0.76937413,-5.618128,-2.3431263,3.741397
2026-05-10 11:30:27.680,336,3.8713844,1.9549311,1.8316313,-4.39738985,-1.8116736,2.03731195
2026-05-10 11:30:27.690,337,3.8713844,1.9549311,1.8316313,-3.7377317,-1.5021176,1.5816828
2026-05-10 11:30:27.700,338,3.8713844,1.9549311000000003,1.8316313,-3.7377317,-1.5021176,1.5816828
2026-05-10 11:30:27.710,339,3.8713844,1.9549311,1.8316313,-3.7377317,-1.5021176,1.5816828
2026-05-10 11:30:27.720,340,3.6601527000000003,1.9312102,1.80858115,-3.28889845,-1.38070815,1.4421001
2026-05-10 11:30:27.730,341,3.448921,1.9074893,1.785531,-2.8400652,-1.2592987,1.3025174
2026-05-10 11:30:27.740,342,3.043196,1.8236735,1.46721975,-1.546252635,-1.08207143,1.056644135
2026-05-10 11:30:27.750,343,2.637471,1.7398577,1.1489085,-0.25244007,-0.90484416,0.81077087
2026-05-10 11:30:27.760,344,2.637471,1.7398577,1.1489085,-0.25244007,-0.90484416,0.81077087
2026-05-10 11:30:27.770,345,2.637471,1.7398577,1.1489085,-0.25244007,-0.90484416,0.8107708700000001
2026-05-10 11:30:27.780,346,2.637471,1.7398577,1.1489085,-0.25244007,-0.90484416,0.81077087
2026-05-10 11:30:27.790,347,2.329709,1.7307717,0.87749016,0.123242065,-0.63591075,0.59650993
2026-05-10 11:30:27.800,348,2.329709,1.7307717,0.8774901600000001,0.123242065,-0.63591075,0.59650993
2026-05-10 11:30:27.810,349,2.329709,1.7307717,0.87749016,0.123242065,-0.63591075,0.59650993
2026-05-10 11:30:27.820,350,2.0426597999999996,1.7187791666666667,0.6575180266666667,0.2578360416666667,-0.4049018633333333,0.43727771000000004
2026-05-10 11:30:27.830,351,1.884744,1.7368087,0.42246366,0.32513303,-0.28939742,0.3576616
2026-05-10 11:30:27.840,352,1.869041875,1.733256675,0.40912447,0.1089630825,-0.004161520000000002,0.11400273
2026-05-10 11:30:27.850,353,1.8219354999999997,1.7226006,0.3691069,-0.15775596,0.34819320000000004,-0.28344148
2026-05-10 11:30:27.860,354,1.8219355,1.7226006,0.3691069,-0.15775596,0.3481932,-0.28344148
2026-05-10 11:30:27.870,355,1.8219355,1.7226006,0.3691069,-0.2324724,0.6078491075,-0.74273577
2026-05-10 11:30:27.880,356,1.534937075,1.7108773,0.40211187,-0.2406809,0.6571383,-0.840856
2026-05-10 11:30:27.890,357,1.3514203,1.700648,0.41728044000000003,-0.2406809,0.6571383,-0.840856
2026-05-10 11:30:27.900,358,1.3514203,1.700648,0.41728044,-0.13316862,0.7489208,-1.1467468
2026-05-10 11:30:27.910,359,1.3514203,1.700648,0.41728044,-0.13316862,0.7489208,-1.1467468
2026-05-10 11:30:27.920,360,1.0954908,1.727418,0.28977302,0.06322455533333333,0.7463755000000001,-1.5049174333333335
2026-05-10 11:30:27.930,361,1.0954908,1.727418,0.28977302,0.0729984,0.7678576,-1.6781995
2026-05-10 11:30:27.940,362,1.0954908,1.727418,0.28977302,0.0729984,0.7678576,-1.6781995
2026-05-10 11:30:27.950,363,1.0954908,1.727418,0.28977302,0.0729984,0.7678576,-1.6781995
2026-05-10 11:30:27.960,364,1.0954908,1.727418,0.28977302,0.0729984,0.7678576,-1.6781995
2026-05-10 11:30:27.970,365,1.0954908,1.727418,0.28977302,0.0729984,0.7678576,-1.6781995
2026-05-10 11:30:27.980,366,1.0954908,1.727418,0.28977302,-0.021838432,0.9503536,-2.0609066
2026-05-10 11:30:27.990,367,1.0954908,1.727418,0.28977302,-0.021838432,0.9503536,-2.0609066
2026-05-10 11:30:28.000,368,1.12704745,1.73699165,0.258521185,-0.021838432,0.9503536,-2.0609066
2026-05-10 11:30:28.010,369,1.1586041,1.7465653,0.22726935,-0.10579423299999999,1.053208,-2.2557343999999997
2026-05-10 11:30:28.020,370,1.1586041,1.7465653,0.22726935,-0.1337795,1.0874928,-2.320677
2026-05-10 11:30:28.030,371,1.256186075,1.75359315,0.2318123,-0.3507130125,1.45294295,-3.2520173249999997
2026-05-10 11:30:28.040,372,1.3599575,1.6932696,0.31312802,-0.18005253,1.6229162,-4.097073
2026-05-10 11:30:28.050,373,1.2729605,1.5282192666666667,0.5479791399999999,-0.18005253,1.6229162,-4.097073
2026-05-10 11:30:28.060,374,1.229462,1.4456941,0.6654047,-0.059482997499999996,1.60241405,-4.170186
2026-05-10 11:30:28.070,375,1.229462,1.4456941,0.6654047,0.3022256,1.5409076,-4.389525
2026-05-10 11:30:28.080,376,1.229462,1.4456941,0.6654047,0.7370089,1.5222762,-4.6324964
2026-05-10 11:30:28.090,377,1.229462,1.4456941,0.6654047,0.7370088999999999,1.5222762,-4.6324964
2026-05-10 11:30:28.100,378,1.299892925,1.3842271,0.6235120249999999,0.7370089,1.5222762,-4.6324964
2026-05-10 11:30:28.110,379,1.468485075,1.2572684,0.53353725,0.7370089,1.5222762,-4.6324964
2026-05-10 11:30:28.120,380,1.5168568,1.2217785,0.5082004,0.7370089,1.5222762,-4.6324964
2026-05-10 11:30:28.130,381,1.5168568,1.2217785,0.5082004,0.7370088999999999,1.5222762,-4.6324964
2026-05-10 11:30:28.140,382,1.5822112,1.1573388,0.4286683,1.2779683,1.781130375,-5.1770066
2026-05-10 11:30:28.150,383,1.6039959999999998,1.1358589,0.4021576,1.4582881,1.8674150999999999,-5.35851
2026-05-10 11:30:28.160,384,1.593370425,0.98208475,0.2941177675,1.59332745,1.8165987000000001,-5.59983985
2026-05-10 11:30:28.170,385,1.5959163,0.71238913,0.205286365,1.7162259,1.6730071,-5.8006234
2026-05-10 11:30:28.180,386,1.6330221,0.63643956,0.20909756,1.8196149,1.4940237,-5.879425
2026-05-10 11:30:28.190,387,1.6330221,0.63643956,0.20909756,1.8196149000000001,1.4940237000000003,-5.879425
2026-05-10 11:30:28.200,388,1.7331804000000002,0.5494222950000001,0.17568098,1.8544723749999998,1.4692073,-5.92432365
2026-05-10 11:30:28.210,389,1.8333387,0.46240503,0.1422644,1.9590448,1.3947581,-6.0590196
2026-05-10 11:30:28.220,390,1.8333386999999999,0.46240503,0.1422644,1.9590448,1.3947581,-6.0590196
2026-05-10 11:30:28.230,391,1.8559772,0.43458328749999997,0.1152658735,1.9590448,1.3947581,-6.0590196
2026-05-10 11:30:28.240,392,1.9104621,0.21132331000000001,-0.0266631395,1.880968575,1.50482835,-6.172297025
2026-05-10 11:30:28.250,393,1.8497422,-0.03823394,-0.084456146,1.6801848,1.758681,-6.3723936
2026-05-10 11:30:28.260,394,1.8497422,-0.03823394,-0.084456146,1.41904,1.9926424,-6.4782257
2026-05-10 11:30:28.270,395,1.6189510999999999,-0.35898436,0.07128464849999999,1.458211725,1.9059759,-6.488343275
2026-05-10 11:30:28.280,396,1.4658782,-0.5435683,0.16586334,1.5757269,1.6459764,-6.518696
2026-05-10 11:30:28.290,397,1.4658782,-0.5435683,0.16586334,1.5757269,1.6459764,-6.518696
2026-05-10 11:30:28.300,398,1.3705881333333334,-0.6431675933333333,0.18240902,1.5757269,1.6459763999999997,-6.518696000000001
2026-05-10 11:30:28.310,399,1.3229431,-0.69296724,0.19068186,1.7356209,1.48195905,-6.467497475
2026-05-10 11:30:28.320,400,0.9234686,-0.94566494,0.16311927,2.1894937,1.1571314,-6.0523
2026-05-10 11:30:28.330,401,0.9234686,-0.94566494,0.16311927,2.1894937,1.1571314,-6.0523
2026-05-10 11:30:28.340,402,0.8128371249999999,-0.976306955,0.1612594075,2.264172,1.1325441,-5.9451695749999995
2026-05-10 11:30:28.350,403,0.4809427,-1.068233,0.15567982,2.6861272,0.9092729,-5.3081136
2026-05-10 11:30:28.360,404,0.29983455999999997,-1.10980565,0.151152115,2.6861272,0.9092729,-5.3081136
2026-05-10 11:30:28.370,405,0.23946517999999997,-1.1236632,0.14964288,2.6861272,0.9092729,-5.3081136
2026-05-10 11:30:28.380,406,0.23946518,-1.1236632,0.14964288,2.6861272,0.9092729,-5.3081136
2026-05-10 11:30:28.390,407,0.156533515,-1.1458901,0.1400081725,2.92035595,0.5967008,-4.8958941750000005
2026-05-10 11:30:28.400,408,-0.3541466933333333,-1.2594028,-0.002032636666666666,3.197370533333333,-0.022958353333333348,-3.9799397666666665
2026-05-10 11:30:28.410,409,-0.5808571,-1.236809975,-0.13406270250000002,3.232469675,-0.52820752,-2.9352837000000003
2026-05-10 11:30:28.420,410,-0.67430764,-0.9010892,-0.4278908,1.8393153,-0.45998153,-0.8549059
2026-05-10 11:30:28.430,411,-0.64764451,-0.87378575,-0.405069365,1.0771845,-0.06036112250000001,-0.25587617725
2026-05-10 11:30:28.440,412,-0.6323133233333333,-0.8542774999999999,-0.3758146133333333,0.34183,0.32024611000000003,0.39665516466666667
2026-05-10 11:30:28.450,413,-0.6235272275,-0.830886925,-0.29529162000000003,-0.6207918,0.81504697,1.3023647
2026-05-10 11:30:28.460,414,-0.6358298,-0.8231578,-0.18360828,-0.6207918,0.81504697,1.3023647
2026-05-10 11:30:28.470,415,-0.6358298,-0.8231578,-0.18360827999999998,-0.6207918,0.81504697,1.3023647
2026-05-10 11:30:28.480,416,-0.6479951500000001,-0.8351707,-0.096773942,-0.6207918,0.81504697,1.3023647
2026-05-10 11:30:28.490,417,-0.6601605,-0.8471836,-0.009939604,-0.6207918,0.81504697,1.3023647
2026-05-10 11:30:28.500,418,-0.6601605,-0.8471836,-0.009939604,-0.932791275,0.9597075175,1.8933769249999999
2026-05-10 11:30:28.510,419,-0.557578275,-0.885966325,0.118528259,-0.97952245,0.801646125,3.328413875
2026-05-10 11:30:28.520,420,-0.5233842,-0.8988939,0.16135088,-0.9604329000000001,0.7328856,3.7410915
2026-05-10 11:30:28.530,421,-0.5233842,-0.8988939,0.16135088,-0.9604329,0.7328856,3.7410915
2026-05-10 11:30:28.540,422,-0.005488124999999983,-0.8547602025000001,0.12407736500000001,-0.5999842125,0.27782916,4.825873574999999
2026-05-10 11:30:28.550,423,0.34745929000000003,-0.8086447133333333,0.06345899,-0.4992805333333334,0.10293079866666667,5.3936855
2026-05-10 11:30:28.560,424,0.70809007,-0.7458362,-0.03292875,-0.5381723,0.056505036,5.8061213
2026-05-10 11:30:28.570,425,0.70809007,-0.7458362,-0.03292875,-0.5381723,0.056505036,5.8061213
2026-05-10 11:30:28.580,426,0.70809007,-0.7458362,-0.03292875,-0.62272622,0.05513058866666667,5.8706185333333325
2026-05-10 11:30:28.590,427,0.9309232025,-0.671990435,-0.08003515750000001,-0.8408560025,0.0467693695,6.0100359
2026-05-10 11:30:28.600,428,1.185496,-0.5777776,-0.13573962,-1.291521865,0.01191187185,5.9324178
2026-05-10 11:30:28.610,429,1.185496,-0.5777776,-0.13573962,-1.5951219,-0.0061086523,5.823531
2026-05-10 11:30:28.620,430,1.2823309333333335,-0.5363930666666666,-0.16446081,-1.5951218999999999,-0.0061086523,5.823531
2026-05-10 11:30:28.630,431,1.5194179,-0.28309578,-0.16528404,-2.10504165,0.04375322385,5.5637607
2026-05-10 11:30:28.640,432,1.301036275,-0.18830367,0.0909504275,-2.82059385,-0.08235227249999999,5.0382637500000005
2026-05-10 11:30:28.650,433,1.1840935,-0.17129049,0.1817789,-2.8098273,-0.17409660000000002,4.995198
2026-05-10 11:30:28.660,434,0.9754990225,-0.1538656875,0.336178175,-2.71724305,-0.28878654249999997,4.9923345
2026-05-10 11:30:28.670,435,0.90596753,-0.14805742,0.3876446,-2.4394903,-0.63285637,4.983744
2026-05-10 11:30:28.680,436,0.90596753,-0.14805742,0.3876446,-2.4394903,-0.63285637,4.983744
2026-05-10 11:30:28.690,437,0.8721545725,-0.1444748925,0.3926448825,-2.4394903,-0.63285637,4.983744
2026-05-10 11:30:28.700,438,0.7707157,-0.13372731,0.40764573,-2.4394903,-0.63285637,4.983744
2026-05-10 11:30:28.710,439,1.3011125000000001,0.06640632333333334,0.3086968766666667,-1.2223413933333334,-1.357749766666667,5.151222866666667
2026-05-10 11:30:28.720,440,1.7317475,0.27239394,0.23092812,-0.767323085,-1.49104565,4.994434375
2026-05-10 11:30:28.730,441,1.759188,0.56850874,0.11890938,-0.6229298066666668,-1.3935363,4.613050866666666
2026-05-10 11:30:28.740,442,1.759188,0.56850874,0.11890938,-0.41126502,-1.2114985,3.9639046
2026-05-10 11:30:28.750,443,1.4387425,0.71370017,0.013842273000000002,-0.39683333499999995,-1.07260302,3.6990181
2026-05-10 11:30:28.760,444,1.118297,0.8588916,-0.091224834,-0.38240165,-0.93370754,3.4341316
2026-05-10 11:30:28.770,445,0.9637148,0.93163973,-0.16226557,-0.5122105,-0.77671516,2.9852984
2026-05-10 11:30:28.780,446,1.0105874666666665,0.9833500433333334,-0.18466524333333334,-0.7024441133333333,-0.8869763366666666,2.967481533333333
2026-05-10 11:30:28.790,447,1.2122048666666665,1.0961615,-0.17415649666666666,-1.1215995,-0.9445504000000001,2.860682
2026-05-10 11:30:28.800,448,1.568567,1.2700741,-0.13073933,-1.5370897,-0.8483391,2.6190848
2026-05-10 11:30:28.810,449,1.568567,1.2700741,-0.13073933,-1.5370897,-0.8483391,2.6190848
2026-05-10 11:30:28.820,450,1.568567,1.2700741,-0.13073933,-1.5370897,-0.8483391,2.6190848
2026-05-10 11:30:28.830,451,1.568567,1.2700741,-0.13073933,-1.6378061,-0.6722572,2.26806635
2026-05-10 11:30:28.840,452,2.104635025,1.76072775,0.11750685500000001,-1.363183975,-0.7467064,1.066303495
2026-05-10 11:30:28.850,453,2.2342765,2.1357343,-0.16177773,-1.2875512,-0.87949324,0.49327368
2026-05-10 11:30:28.860,454,2.2342765,2.1357343,-0.16177773,-1.2875512,-0.87949324,0.49327368
2026-05-10 11:30:28.870,455,2.2342765,2.1357343,-0.16177773,-1.2875512,-0.87949324,0.49327368
2026-05-10 11:30:28.880,456,2.295763866666667,2.1815296666666666,-0.17698187333333334,-1.2875512,-0.87949324,0.49327368
2026-05-10 11:30:28.890,457,2.4187386,2.2731204,-0.20739016,-1.2875512,-0.87949324,0.49327368
2026-05-10 11:30:28.900,458,2.4187386,2.2731204,-0.20739016,-1.2875512,-0.87949324,0.49327368
2026-05-10 11:30:28.910,459,2.4187386,2.2731204,-0.20739016,-1.8629863,-0.5653558,0.44990227
2026-05-10 11:30:28.920,460,2.4187386,2.2731204,-0.20739016,-1.8629863,-0.5653558,0.44990227
2026-05-10 11:30:28.930,461,2.4187386,2.2731204,-0.20739016,-1.8629863,-0.5653558,0.44990227
2026-05-10 11:30:28.940,462,2.4187386,2.2731204,-0.20739016,-1.8629863,-0.5653558,0.44990227
2026-05-10 11:30:28.950,463,2.4187386,2.2731204,-0.20739016,-1.8629863,-0.5653558,0.44990227
2026-05-10 11:30:28.960,464,2.86754545,2.3324379,0.32703128600000003,-2.6046913000000003,0.13553573075,0.06578255062499999
2026-05-10 11:30:28.970,465,2.9169996,2.3281236,0.41789025,-2.6163359,0.19440787,0.0096211275
2026-05-10 11:30:28.980,466,2.96311505,2.330410325,0.5217835125,-2.6163359,0.19440787,0.0096211275
2026-05-10 11:30:28.990,467,3.1014614,2.3372705,0.8334633,-2.6163359,0.19440787,0.0096211275
2026-05-10 11:30:29.000,468,3.11481575,2.342026925,0.91532775,-1.5748106,0.4448626,-0.8743009
2026-05-10 11:30:29.010,469,3.1192672,2.3436124,0.9426159,-1.5748106,0.4448626,-0.8743009
2026-05-10 11:30:29.020,470,2.9562903333333335,2.2785273333333333,0.81098228,-0.49464813,0.41111229999999993,-1.8370245
2026-05-10 11:30:29.030,471,2.6271045500000003,2.090061,0.587961155,-0.237932012,0.45074218,-2.13993725
2026-05-10 11:30:29.040,472,2.3794072,1.9341372,0.43075684,0.018784106,0.49037206,-2.44285
2026-05-10 11:30:29.050,473,2.2229346000000003,1.79922085,0.397645145,0.095371338,0.5047273800000001,-2.5161539
2026-05-10 11:30:29.060,474,2.047274,1.6127567,0.3756316833333333,0.2619593766666667,0.48579058,-2.667343066666666
2026-05-10 11:30:29.070,475,2.03768,1.5869828,0.3811808,0.30695978,0.46914452,-2.7062857
2026-05-10 11:30:29.080,476,1.9580564,1.5387483,0.369670975,0.39878046500000003,0.509118015,-2.843463175
2026-05-10 11:30:29.090,477,1.6666521,1.4116677499999999,0.267576585,0.49586986,0.67874765,-3.06425275
2026-05-10 11:30:29.100,478,1.6141186,1.4292907,0.20001167,0.44532076,0.7350236,-3.0508137000000004
2026-05-10 11:30:29.110,479,1.707081325,1.4512584499999999,0.18667248,0.24755314,0.874911775,-3.263623875
2026-05-10 11:30:29.120,480,1.9217584,1.3322119,0.33532444,-0.08093964,1.1930199,-3.854865
2026-05-10 11:30:29.130,481,1.9217584,1.3322119,0.33532444,-0.08093964,1.1930199,-3.854865
2026-05-10 11:30:29.140,482,1.9217584,1.3322119,0.33532444,-0.08093964,1.1930199,-3.854865
2026-05-10 11:30:29.150,483,1.7650826000000002,1.1730156333333333,0.45207921333333334,-0.08093964,1.1930199,-3.854865
2026-05-10 11:30:29.160,484,1.613280075,1.03952715,0.5325463100000001,0.09285152,1.505172,-4.3785295
2026-05-10 11:30:29.170,485,1.3928862,0.8778561,0.59881544,0.5694791,1.7127135,-4.7193923
2026-05-10 11:30:29.180,486,0.8759658,0.39587676999999993,0.5735091,1.0917689,1.7438674999999997,-4.797125
2026-05-10 11:30:29.190,487,0.8759658,0.39587677,0.5735091,1.0917689,1.7438675,-4.797125
2026-05-10 11:30:29.200,488,0.8448256799999999,0.10675419800000001,0.16689999333333336,2.824081,0.9502009,-4.551302333333333
2026-05-10 11:30:29.210,489,0.819834385,-0.15250889150000002,-0.048905290000000004,2.8541916,0.6345362999999999,-4.6578475
2026-05-10 11:30:29.220,490,0.7023733,-0.3996422025,-0.2062010625,2.336674075,0.06593526625,-4.907500625
2026-05-10 11:30:29.230,491,0.682052,-0.41392656999999994,-0.22348866,2.2153027,-0.058184914,-4.9093714
2026-05-10 11:30:29.240,492,0.5228048875,-0.4396902675,-0.2030149,2.0946569,-0.35369097699999996,-4.799415700000001
2026-05-10 11:30:29.250,493,0.40526757,-0.36428955,-0.18257163,1.9740111,-0.64919704,-4.68946
2026-05-10 11:30:29.260,494,0.40526757,-0.36428955,-0.18257163,1.82098935,-0.830853085,-4.5626672500000005
2026-05-10 11:30:29.270,495,0.4052675700000001,-0.36428955,-0.18257163,1.7699821,-0.8914051,-4.520403
2026-05-10 11:30:29.280,496,0.43356186,-0.46002686,-0.17787623,1.652963225,-0.8334492499999999,-4.467066825
2026-05-10 11:30:29.290,497,0.40200516,-0.445346105,-0.14618230999999998,1.058400425,-0.366137345,-4.1901158249999995
2026-05-10 11:30:29.300,498,0.39148626,-0.44045252,-0.13561767,0.9772317,-0.26832256,-4.151135
2026-05-10 11:30:29.310,499,0.3904801025,-0.445010715,-0.11714098149999999,0.9772317,-0.26832256,-4.151135
2026-05-10 11:30:29.320,500,0.38746163,-0.4586853,-0.061710916,0.6647741,0.45738536,-3.9075522
2026-05-10 11:30:29.330,501,0.36075276,-0.443989325,-0.122735819,0.59559362,0.73471818,-3.8393644
2026-05-10 11:30:29.340,502,0.33154374,-0.43246426999999993,-0.15677744,0.52641314,1.012051,-3.7711766
2026-05-10 11:30:29.350,503,0.23001343,-0.48899198,-0.13397123,0.5131268225,1.08226225,-3.77415455
2026-05-10 11:30:29.360,504,0.23001343,-0.48899198,-0.13397123,0.50869805,1.105666,-3.7751472
2026-05-10 11:30:29.370,505,0.23001343,-0.48899198,-0.13397123,0.6095671625,0.98272939,-3.702683325
2026-05-10 11:30:29.380,506,-0.57588726,-0.47521064,-0.024635585,1.3067935,-0.09621128,-2.826779
2026-05-10 11:30:29.390,507,-0.5770915925,-0.4863393475,-0.024193485875000004,1.764827875,-0.8442539625000001,-2.27226595
2026-05-10 11:30:29.400,508,-0.36663723000000004,-0.3362238675,-0.48867183000000003,0.8607091474999999,-0.837381725,-0.18711566475
2026-05-10 11:30:29.410,509,-0.37032646,-0.32239684,-0.53125054,0.46074513,-0.6001751,-0.020616703
2026-05-10 11:30:29.420,510,-0.4534614066666667,-0.34294682666666665,-0.5207621066666667,0.046476686666666676,-0.4034764923333333,0.141364398
2026-05-10 11:30:29.430,511,-0.6197313,-0.3840468,-0.49978524,-0.7820602,-0.010079277,0.4653266
2026-05-10 11:30:29.440,512,-0.6197313,-0.3840468,-0.49978524,-0.7820602,-0.010079277,0.4653266
2026-05-10 11:30:29.450,513,-0.8450086333333333,-0.5670249366666668,-0.17269300866666668,-1.8595247333333333,0.4603887743333333,1.5608116
2026-05-10 11:30:29.460,514,-0.9114556,-0.63961047,-0.041038983,-2.398257,0.6956228,2.1085541
2026-05-10 11:30:29.470,515,-0.9114556,-0.63961047,-0.041038983,-2.398257,0.6956228,2.1085541
2026-05-10 11:30:29.480,516,-0.9085082800000001,-0.67721428,0.03075382133333333,-2.469575466666667,0.7098763166666666,2.861140066666666
2026-05-10 11:30:29.490,517,-0.82004787,-0.7648007,0.231842795,-2.53661785,0.67653325,4.8399617500000005
2026-05-10 11:30:29.500,518,0.22917493500000002,-0.6466840549999999,0.32960764,-2.01470995,0.5138140375,6.524766
2026-05-10 11:30:29.510,519,1.4051023333333335,-0.33121852333333335,0.157590498,-1.5598953,0.26002497666666663,6.798268333333334
2026-05-10 11:30:29.520,520,1.4885167250000002,-0.240532325,-0.0506127095,-1.365131125,-0.0570013575,6.798701175
2026-05-10 11:30:29.530,521,1.3527212000000002,-0.20779667333333332,-0.08441549599999999,-1.5845844666666666,-0.26277386666666663,6.830593566666667
2026-05-10 11:30:29.540,522,1.552453375,0.017912623250000002,0.207283424,-1.323439575,-0.315550085,6.8769678999999995
2026-05-10 11:30:29.550,523,1.6911353,0.5660696,-0.21196358,-0.35865426,-0.727922315,5.99151895
2026-05-10 11:30:29.560,524,1.6911353,0.5660696,-0.21196358,-0.31337386,-0.7890852,5.7948203
2026-05-10 11:30:29.570,525,1.6911353,0.5660696,-0.21196358,-0.31337386,-0.7890852,5.7948203000000005
2026-05-10 11:30:29.580,526,1.5776226,0.7578795700000001,-0.452892285,-0.99945189,-0.7329237625,5.36022795
2026-05-10 11:30:29.590,527,1.4974248000000001,0.8887103666666668,-0.29983456666666664,-1.6333009,-0.74265945,5.0237556
2026-05-10 11:30:29.600,528,1.4974654,1.0399387,0.08067544,-1.530102925,-1.2355131375,4.840954425
2026-05-10 11:30:29.610,529,1.5497855500000002,1.08405715,0.126501285,-1.3074807,-1.6151277,4.65784765
2026-05-10 11:30:29.620,530,1.7402083,1.3313277000000001,-0.08835880750000001,-1.09944285,-1.82579985,4.170835275
2026-05-10 11:30:29.630,531,1.8627917,1.6480839000000003,-0.6231461,-1.039998,-1.8118263,3.0763173
2026-05-10 11:30:29.640,532,1.79108015,1.67964075,-0.80228765,-1.9252562999999998,-1.32389775,2.746793775
2026-05-10 11:30:29.650,533,1.665463025,1.62262515,0.18025441650000001,-3.8060341500000003,-0.4859433225,1.84763825
2026-05-10 11:30:29.660,534,1.6995706333333331,1.7306498,1.0267062566666667,-2.834669266666667,-0.89893915,1.2454014666666666
2026-05-10 11:30:29.670,535,2.3354410750000003,2.026032825,0.975514275,-1.1632402,-1.3432927,0.28206703
2026-05-10 11:30:29.680,536,2.6794247,2.14756445,0.6517758375,-0.699746134,-0.16630806250000002,-1.29098735
2026-05-10 11:30:29.690,537,2.7496727,1.9790789,0.6957723,0.029626964,0.6395759,-1.8551978
2026-05-10 11:30:29.700,538,2.7496727,1.9790789,0.6957723000000001,0.260941268,0.6694064733333334,-1.9735019333333332
2026-05-10 11:30:29.710,539,2.9094076500000003,1.94401585,0.5154569,0.37659842,0.68432176,-2.032654
2026-05-10 11:30:29.720,540,2.8925062,1.8144554333333334,0.28176440666666663,0.8330674766666667,0.7370598133333334,-3.0266846
2026-05-10 11:30:29.730,541,2.278837225,1.3791201,0.21467716,0.8019897075,1.00475881,-3.6603428
2026-05-10 11:30:29.740,542,2.262754,1.2333037,0.18744996,0.871857405,1.0385472999999998,-3.7044395999999997
2026-05-10 11:30:29.750,543,2.262754,1.2333037,0.18744996,0.93233305,1.0670289,-3.7543778
2026-05-10 11:30:29.760,544,2.1969573,1.1539088,0.15287478,0.9489409625,1.07111405,-3.7983601
2026-05-10 11:30:29.770,545,2.16111685,1.1337857,0.1456182575,0.9987647,1.0833695,-3.930307
2026-05-10 11:30:29.780,546,2.0535955,1.0734164,0.12384869,1.0356202333333335,1.0983357666666667,-4.053090999999999
2026-05-10 11:30:29.790,547,2.0535955,1.0734164,0.12384869,1.054048,1.1058189,-4.114483
2026-05-10 11:30:29.800,548,2.0535955,1.0734164,0.12384869,1.054048,1.1058189,-4.114483
2026-05-10 11:30:29.810,549,1.92395375,1.02438908,0.073784793,1.0509936500000001,1.158506,-4.20374565
2026-05-10 11:30:29.820,550,1.7450814666666667,0.9063740066666667,0.010529069333333335,0.9637417199999999,1.3209452,-4.410192633333334
2026-05-10 11:30:29.830,551,1.5457304,0.6975102175,0.005823509500000001,0.8095491675,1.546672625,-4.7770809
2026-05-10 11:30:29.840,552,1.1229110666666668,0.31751853999999996,0.16090369666666668,1.18019165,1.2380202666666669,-5.012811200000001
2026-05-10 11:30:29.850,553,0.8178830500000001,-0.11907706625,0.113787124,2.0758347,0.82978408,-5.02043425
2026-05-10 11:30:29.860,554,0.7293108,-0.28440684,-0.006768687,2.6367998,0.5355761,-4.8550043
2026-05-10 11:30:29.870,555,0.7849238499999999,-0.3505082400000001,-0.20001167,2.4885123,0.57344973,-4.7774243
2026-05-10 11:30:29.880,556,0.817883095,-0.418057925,-0.3029445075,2.257643425,0.6677520575,-4.7589074
2026-05-10 11:30:29.890,557,0.741140805,-0.553081025,-0.20865547,1.145754075,0.8640688825,-4.706945625
2026-05-10 11:30:29.900,558,0.6225363,-0.6068037,-0.18677919,1.0274752999999999,0.823217275,-4.67960955
2026-05-10 11:30:29.910,559,0.602245475,-0.6103709749999999,-0.17249482,0.70478576,0.91889405,-4.4832926
2026-05-10 11:30:29.920,560,0.034941056666666664,-0.53125052,0.17429879133333334,2.039475466666667,0.5235115,-3.8744636666666668
2026-05-10 11:30:29.930,561,-0.2658488433333333,-0.42969986666666665,-0.03339625533333334,2.4844907,0.09392052333333333,-3.7872117666666667
2026-05-10 11:30:29.940,562,-0.3673385,-0.39508402,-0.10884781,2.8280005,-0.30833423,-3.6558757
2026-05-10 11:30:29.950,563,-0.3673385,-0.39508402,-0.10884781,2.9392161249999997,-0.6473644325,-3.48269545
2026-05-10 11:30:29.960,564,-0.5918638,-0.4027064,-0.32507995,2.976288,-0.7603745,-3.4249687
2026-05-10 11:30:29.970,565,-0.5918638,-0.4027064,-0.32507995,2.976288,-0.7603744999999998,-3.4249686999999995
2026-05-10 11:30:29.980,566,-0.6431777750000001,-0.40849943,-0.3384038975,2.9652927,-1.3628404,-3.0718887
2026-05-10 11:30:29.990,567,-0.7971197,-0.42587852,-0.37837574,2.8751137499999997,-1.5196800000000001,-2.92543375
2026-05-10 11:30:30.000,568,-1.1437253,-0.64300501,-0.33963363333333335,1.1877256533333334,-1.3464488333333333,-1.1359039666666666
2026-05-10 11:30:30.010,569,-1.376985875,-0.66317895,-0.309408305,0.012599087499999995,-0.3383811675,-0.14160620000000002
2026-05-10 11:30:30.020,570,-1.4280102,-0.80370545,-0.10293283,-1.4584408,0.727693265,1.64521275
2026-05-10 11:30:30.030,571,-1.4096961333333333,-0.8326502233333333,-0.07065452566666668,-1.7967074,1.0114402,2.149482
2026-05-10 11:30:30.040,572,-1.2551038,-0.9582266349999999,0.0660099415,-2.0815233,1.2083678500000001,3.3757177499999997
2026-05-10 11:30:30.050,573,-1.1371396,-1.0259135,0.1381178,-2.3663392,1.4052955,4.6019535
2026-05-10 11:30:30.060,574,-0.5502150666666666,-0.9118011533333333,0.015468370000000009,-0.9261225666666666,1.1403327,1.2122113333333329
2026-05-10 11:30:30.070,575,0.036709466666666746,-0.7976888066666666,-0.10718106,0.5140940666666669,0.8753699,-2.177530833333334
2026-05-10 11:30:30.080,576,0.623634,-0.68357646,-0.22983049,1.9543107,0.6104071,-5.567273
2026-05-10 11:30:30.090,577,0.623634,-0.6835764599999999,-0.22983049,1.9543107,0.6104071,-5.567273
2026-05-10 11:30:30.100,578,0.623634,-0.6835764599999999,-0.22983049,1.9543107,0.6104071,-5.567273
2026-05-10 11:30:30.110,579,0.52378058,-0.7215969799999999,-0.195255295,1.8752036,0.54412824,-5.427385
2026-05-10 11:30:30.120,580,0.23233064,-0.81413287,0.0014025208,1.983021325,0.35216382,-5.0487631749999995
2026-05-10 11:30:30.130,581,0.23233064,-0.81413287,0.0014025208,2.1326833,0.20051652,-4.7265697
2026-05-10 11:30:30.140,582,0.182266735,-0.819742985,0.0246050939,2.1675026,0.19433151,-4.654029525
2026-05-10 11:30:30.150,583,0.0762696915,-0.8247585,0.0176229795,2.2719605,0.17577648,-4.436409
2026-05-10 11:30:30.160,584,0.057625312000000005,-0.8245603,0.007561417,2.2719605,0.17577648,-4.436409
2026-05-10 11:30:30.170,585,-0.047838159500000005,-0.787012405,-0.14756958575,2.214577425,0.36781723499999996,-4.059505
2026-05-10 11:30:30.180,586,-0.08299265,-0.77449644,-0.19927992,2.0916026,0.572228,-3.6994
2026-05-10 11:30:30.190,587,-0.10232303866666669,-0.6239591999999999,-0.3044283333333333,1.7006488333333334,0.7768169666666666,-3.383582666666667
2026-05-10 11:30:30.200,588,-0.9410000000000001,-0.6525685999999999,-0.36569208,1.6406313,-0.681038375,-1.60779738
2026-05-10 11:30:30.210,589,-1.6264973,-0.7354088,-0.38886416,1.757612,-0.8355109,-0.16722436
2026-05-10 11:30:30.220,590,-1.6264972999999998,-0.7354088,-0.38886416,1.3277156,-0.52763486,0.8063420999999998
2026-05-10 11:30:30.230,591,-1.6264973,-0.7354088,-0.38886416,1.3277156,-0.52763486,0.8063421
2026-05-10 11:30:30.240,592,-1.6264973,-0.7354088,-0.38886416,1.3277156,-0.52763486,0.8063421
2026-05-10 11:30:30.250,593,-1.6264972999999998,-0.7354088,-0.38886416,-0.41080685999999994,0.36514469999999993,2.291661
2026-05-10 11:30:30.260,594,-0.7990710200000001,-0.7116574,-0.21534792000000003,-1.92598173,1.0064005,3.7361281999999996
2026-05-10 11:30:30.270,595,1.3117381474999998,-0.82510908,0.138559905,-2.604194975,0.2301816575,7.5276925
2026-05-10 11:30:30.280,596,2.5488073,-0.38219710333333334,-0.15057789666666666,-2.666223233333333,0.23935737,7.4444112
2026-05-10 11:30:30.290,597,2.4512405,-0.23044027,-0.20086539,-2.8936687,0.16584991,6.8099256
2026-05-10 11:30:30.300,598,2.4512405,-0.23044027,-0.20086539,-0.5196936,-1.0106765,7.662846599999999
2026-05-10 11:30:30.310,599,2.6204272499999997,0.1265013,0.0003963599999999984,-0.5196936,-1.0106765,7.6628466
2026-05-10 11:30:30.320,600,3.2117116,0.9875576,-0.12933682,-0.8613963450000001,-0.4844924925,5.6490908
2026-05-10 11:30:30.330,601,2.998040733333333,1.2016758,-0.06274756599999999,-1.112691,-0.39584066999999995,4.7390924
2026-05-10 11:30:30.340,602,2.8912053,1.3087349,-0.029452939,-1.112691,-0.39584067,4.7390924
2026-05-10 11:30:30.350,603,2.2586989,1.4396266999999998,0.3018773805,-0.9154579,-0.7821365849999999,3.9844448999999997
2026-05-10 11:30:30.360,604,1.5836290499999999,1.5837052249999999,0.6275976000000001,-0.7182248,-1.1684325,3.2297974
2026-05-10 11:30:30.370,605,1.4559387,1.6232654,0.6107673,-0.7182248000000001,-1.1684325,3.2297974000000003
2026-05-10 11:30:30.380,606,1.4559387,1.6232654,0.6107673,-0.7182248,-1.1684325,3.2297974
2026-05-10 11:30:30.390,607,1.7966598,1.7389276999999999,-0.224479575,-1.12895525,-0.4674646275,2.5240189749999997
2026-05-10 11:30:30.400,608,1.9576345999999998,1.7958975,-0.5347873133333333,-1.6341662666666668,-0.07462736666666667,2.146173333333333
2026-05-10 11:30:30.410,609,2.27025445,2.0283348500000002,0.621088085,-2.370768,0.24373524,1.861001
2026-05-10 11:30:30.420,610,2.8757167,2.1894572,0.567838,0.7502952,-0.4558582,-1.9494236999999999
2026-05-10 11:30:30.430,611,2.9316955,2.1022568,0.22019579,0.7502952,-0.4558582,-1.9494237
2026-05-10 11:30:30.440,612,2.9211308750000002,2.0785816500000003,0.20463085250000002,0.6060546625,0.027068962499999995,-2.7279714999999998
2026-05-10 11:30:30.450,613,2.889437,2.0075562,0.15793604,0.48441613,0.22418754,-2.9923234
2026-05-10 11:30:30.460,614,2.723248333333333,1.7667291333333335,0.18907606666666665,0.44908775666666667,0.31082858666666663,-3.271896033333333
2026-05-10 11:30:30.470,615,2.5981699,1.6177620750000001,0.224479555,0.510187015,0.28893925249999997,-3.5700110499999997
2026-05-10 11:30:30.480,616,2.267540875,1.388083975,0.23423622275,0.7773641975,-0.002977970000000004,-3.754874175
2026-05-10 11:30:30.490,617,2.1035373,1.2170222,0.018293751,0.55481833,-0.00290161,-3.9327504999999996
2026-05-10 11:30:30.500,618,1.8020258249999999,1.015470835,0.10906124525,0.3558671775,0.6451500725,-4.34997155
2026-05-10 11:30:30.510,619,1.14656085,0.63211002,0.30334087,0.44516805,1.1261301,-4.593096
2026-05-10 11:30:30.520,620,1.0091443,0.5510687,0.33788556,0.44516805,1.1261301,-4.593096
2026-05-10 11:30:30.530,621,0.898650025,0.4522367375,0.3557677125,0.5301928625,1.1076514,-4.5686995
2026-05-10 11:30:30.540,622,0.756599025,0.024544109999999994,0.1471579815,1.753488675,0.685925295,-4.384561725
2026-05-10 11:30:30.550,623,0.7262008999999999,-0.1425693,0.025733207999999997,2.0243565,0.5933028466666667,-4.542954066666667
2026-05-10 11:30:30.560,624,0.6755272,-0.42728102,-0.15000875,1.897042,0.6632469,-4.618905
2026-05-10 11:30:30.570,625,0.6755272,-0.42728102,-0.15000875,1.897042,0.6632469,-4.618905
2026-05-10 11:30:30.580,626,0.4158372666666666,-0.5773304266666667,-0.08297231933333334,1.7881553333333333,0.5054400666666666,-4.530329333333333
2026-05-10 11:30:30.590,627,0.21571381,-0.690771995,-0.02451362491,1.7353154499999999,0.286114015,-4.1619776
2026-05-10 11:30:30.600,628,0.058357062,-0.70406545,-0.03222749,1.755435775,0.1411480575,-3.80530865
2026-05-10 11:30:30.610,629,0.016159479,-0.7001627999999999,-0.03603869,1.8327484,-0.13545936,-3.532481
2026-05-10 11:30:30.620,630,0.016159479,-0.7001628,-0.03603869,1.8327484,-0.13545936,-3.532481
2026-05-10 11:30:30.630,631,-0.0262210405,-0.677630975,-0.07613249,1.88100675,-0.32566753000000004,-3.5063665000000004
2026-05-10 11:30:30.640,632,-0.06860156,-0.65509915,-0.11622629,1.9292651,-0.5158757,-3.480252
2026-05-10 11:30:30.650,633,-0.10382719,-0.6405251333333334,-0.14761024,1.9292651,-0.5158757,-3.480252
2026-05-10 11:30:30.660,634,-0.17427845,-0.6113771,-0.21037814,1.8572213,-0.7237607975,-3.414278625
2026-05-10 11:30:30.670,635,-0.20952441,-0.5992625833333333,-0.23889606,1.6337591,-0.7907141633333333,-3.344640033333333
2026-05-10 11:30:30.680,636,-0.28001633,-0.57503355,-0.2959319,1.5340353,-0.78954333,-3.3208163
2026-05-10 11:30:30.690,637,-0.39063255666666663,-0.5409665166666667,-0.2972327666666667,1.5340353,-0.78954333,-3.3208163
2026-05-10 11:30:30.700,638,-0.44594067,-0.523933,-0.2978832,1.155299,-0.6545421,-3.255301
2026-05-10 11:30:30.710,639,-0.44594067,-0.523933,-0.2978832,1.155299,-0.6545421,-3.255301
2026-05-10 11:30:30.720,640,-0.44594067,-0.523933,-0.2978832,1.155299,-0.6545421,-3.255301
2026-05-10 11:30:30.730,641,-1.0770293925,-0.434156425,-0.25525878750000003,0.433485275,-0.5329035525,-2.1516202
2026-05-10 11:30:30.740,642,-1.4538654,-0.41417053,-0.18671821,0.1928807,-0.49235736999999996,-1.7837266000000003
2026-05-10 11:30:30.750,643,-1.4321872500000001,-0.412280165,-0.17665665,0.15069281925,-0.48483610250000003,-1.60921
2026-05-10 11:30:30.760,644,-1.4105091,-0.4103898,-0.16659509,0.024129177,-0.4622723,-1.0856602
2026-05-10 11:30:30.770,645,-1.4105090999999998,-0.4103898000000001,-0.16659509,0.024129177,-0.4622723,-1.0856602
2026-05-10 11:30:30.780,646,-1.4105091,-0.4103898,-0.16659509,0.024129177,-0.4622723,-1.0856602
2026-05-10 11:30:30.790,647,-1.3552925,-0.35075217000000003,-0.218061495,-0.1372156015,-0.31238123,-0.7034113
2026-05-10 11:30:30.800,648,-1.1763694333333332,-0.4962484733333333,-0.027135728666666668,-1.5572481266666667,0.51954088,1.541264
2026-05-10 11:30:30.810,649,-1.074803575,-0.6534832625,0.16761649425,-2.1484893,0.8286387,2.8097511
2026-05-10 11:30:30.820,650,-0.87803906,-0.7613249400000001,0.2991028,-1.6341155,0.25417084333333334,4.737616333333333
2026-05-10 11:30:30.830,651,-0.3635273225,-0.840277685,0.2462796025,-1.5841264,0.19379699,4.891198
2026-05-10 11:30:30.840,652,-0.23562351,-0.860599,0.22641563,-1.5841264,0.19379699,4.891198
2026-05-10 11:30:30.850,653,0.9177771633333333,-0.5540364,0.21104889000000002,-3.2335643333333337,0.18107063666666667,5.843028
2026-05-10 11:30:30.860,654,0.9213342,-0.5017976,0.5547275,-3.3859115500000003,-0.10331259000000001,6.926372
2026-05-10 11:30:30.870,655,0.9213342,-0.5017976,0.5547275,-1.3687963,-0.93737274,8.748659
2026-05-10 11:30:30.880,656,2.785386166666667,0.6736775333333332,0.3030461466666667,-0.9871073666666668,-1.6240360999999999,6.674313733333332
2026-05-10 11:30:30.890,657,1.0553665,0.9582876,0.95743394,-1.11650895,-1.52135985,4.2932372999999995
2026-05-10 11:30:30.900,658,1.0553665,0.9582876,0.95743394,-1.2194397,-1.2353222,3.128699
2026-05-10 11:30:30.910,659,1.0553665,0.9582875999999999,0.95743394,-0.9108000499999999,-1.280119,3.226539266666667
2026-05-10 11:30:30.920,660,0.8272434,0.96401966,0.61674327,0.42348233,-1.4315627,3.8634171
2026-05-10 11:30:30.930,661,1.2123878499999998,1.08484988,0.213030705,0.27305678,-1.2353222,4.3224826
2026-05-10 11:30:30.940,662,1.5975323,1.2056801,-0.19068186,0.27305678,-1.2353222,4.3224826
2026-05-10 11:30:30.950,663,1.5975323,1.2056801,-0.19068186,0.27305678,-1.2353222,4.3224826
2026-05-10 11:30:30.960,664,1.5975323,1.2056801,-0.19068186,-0.03711006,-1.15407715,4.2817836
2026-05-10 11:30:30.970,665,1.5975323,1.2056801,-0.19068186,-0.3472769,-1.0728321,4.2410846
2026-05-10 11:30:30.980,666,2.15203115,1.479186875,-0.319180215,-0.3472769,-1.0728321,4.2410846
2026-05-10 11:30:30.990,667,2.9001083,1.937613,-0.21171968,-0.3472769,-1.0728321,4.2410846
2026-05-10 11:30:31.000,668,2.3710376749999997,1.825502875,1.468317375,-2.6413813,0.2134974,-0.10247265
2026-05-10 11:30:31.010,669,2.4514847,1.888159,1.1543967,-1.861268205,0.1188132875,-0.2461023375
2026-05-10 11:30:31.020,670,2.4514847,1.888159,1.1543967,0.47907108,-0.16523905,-0.6769914
2026-05-10 11:30:31.030,671,2.5673754,1.9550988249999999,0.7587790075,0.830776745,-0.1191187225,-0.901713475
2026-05-10 11:30:31.040,672,2.6860103999999994,1.9973116,0.56509393,0.8721628999999999,0.20616703,-1.4570663
2026-05-10 11:30:31.050,673,2.8708382,2.002312,0.4080726,0.8721629,0.20616703,-1.4570663
2026-05-10 11:30:31.060,674,2.8955652499999998,1.9690174,0.473564225,0.79664467,0.349796715,-1.99707115
2026-05-10 11:30:31.070,675,2.7753246,1.8959033333333333,0.5154975666666667,0.72112644,0.4934264,-2.537076
2026-05-10 11:30:31.080,676,2.499017725,1.725344625,0.511904875,1.2731577250000001,0.22968533749999998,-3.21082235
2026-05-10 11:30:31.090,677,2.3978075750000003,1.659700625,0.40942939,1.3694835,0.183794085,-3.3079117
2026-05-10 11:30:31.100,678,2.3186516000000004,1.5679167333333333,0.28121559999999995,1.2952888666666666,0.29917124333333334,-3.4558174000000004
2026-05-10 11:30:31.110,679,2.2898288,1.5294185,0.23165986,1.2382239,0.36041048,-3.5080464
2026-05-10 11:30:31.120,680,2.2898288,1.5294185,0.23165986000000002,1.2382239,0.3604104799999999,-3.5080464
2026-05-10 11:30:31.130,681,2.2472043,1.4734701000000001,0.20312161,1.186071275,0.39946768499999996,-3.54477465
2026-05-10 11:30:31.140,682,1.7973913750000001,1.041112595,0.21780233999999998,0.7289149374999999,0.71009265,-4.0765328499999995
2026-05-10 11:30:31.150,683,1.5584852,0.8640138299999999,0.25926309,0.7312565833333333,0.8025242,-4.388812333333333
2026-05-10 11:30:31.160,684,1.2575734,0.65814817,0.30361527,1.0212903249999998,0.87605713,-4.5539242
2026-05-10 11:30:31.170,685,1.1765931,0.35130098,0.13445906,1.2394456,0.9776898,-4.7342057
2026-05-10 11:30:31.180,686,1.01495762,0.1333207876666667,0.09138744466666666,1.3231850333333333,0.9341656533333333,-4.818250466666667
2026-05-10 11:30:31.190,687,0.8475494299999999,0.0117689795,0.070187021,1.4906639,0.84711736,-4.98634
2026-05-10 11:30:31.200,688,0.8036444,-0.005549104,0.062442668,1.5335771999999999,0.661567045,-4.8246135
2026-05-10 11:30:31.210,689,0.8642729650000001,-0.2539020125,0.010518906625,1.539075,0.5601634225000001,-4.700760649999999
2026-05-10 11:30:31.220,690,0.608938,-0.52521354,-0.02201348,1.4708108,0.8965974500000001,-4.719545
2026-05-10 11:30:31.230,691,0.5694845,-0.5424707,-0.0670161,1.4489723666666665,0.89165962,-4.6763772
2026-05-10 11:30:31.240,692,0.37261322999999996,-0.5577459650000001,-0.074181157,1.0874165133333333,0.6894123249999999,-4.43666335
2026-05-10 11:30:31.250,693,0.17574196,-0.57302123,-0.081346214,0.72586066,0.48716503,-4.1969495
2026-05-10 11:30:31.260,694,0.17574196,-0.57302123,-0.081346214,0.72586066,0.48716503,-4.1969495
2026-05-10 11:30:31.270,695,0.17574196,-0.57302123,-0.081346214,0.72586066,0.48716503,-4.1969495
2026-05-10 11:30:31.280,696,0.17574196,-0.57302123,-0.081346214,0.72586066,0.48716503000000005,-4.1969495
2026-05-10 11:30:31.290,697,0.17574196,-0.57302123,-0.081346214,0.72586066,0.48716503,-4.1969495
2026-05-10 11:30:31.300,698,-0.431503835,-0.6291220775,-0.0185376685,1.01380729,-0.07704538999999999,-3.944738675
2026-05-10 11:30:31.310,699,-0.7898428466666667,-0.6809950333333333,0.051161519999999995,1.1605931,-0.32080607666666666,-3.8149553333333337
2026-05-10 11:30:31.320,700,-0.89468634,-0.6964431,0.08933448,1.5010486,-0.82940227,-3.4142785
2026-05-10 11:30:31.330,701,-0.89468634,-0.6964431,0.08933448,1.5010486,-0.82940227,-3.4142785
2026-05-10 11:30:31.340,702,-1.0202220933333332,-0.6816454866666666,0.1481184,2.0061324000000003,-1.2850059133333334,-2.973997433333333
2026-05-10 11:30:31.350,703,-1.31664695,-0.6503733,0.0762239625,3.147254125,-2.1014527999999997,-1.419536365
2026-05-10 11:30:31.360,704,-1.2836419499999998,-0.44557477,-0.69147325,1.0362565,-0.23189969999999993,1.05290257
2026-05-10 11:30:31.370,705,-1.3593272666666667,-0.5196238233333333,-0.75851984,-1.3847297,1.2969687333333333,2.6134850666666667
2026-05-10 11:30:31.380,706,-0.699614,-0.8583427,0.18995011,-2.4564419,1.1863003,5.590486
2026-05-10 11:30:31.390,707,-0.55427015,-0.8680384,0.225561945,-2.3788620500000004,1.10146635,5.926462000000001
2026-05-10 11:30:31.400,708,1.0623790166666665,-0.7034556933333334,0.16753010666666665,-1.6179783666666667,0.5887723133333332,7.221750766666666
2026-05-10 11:30:31.410,709,1.4836231,-0.5891807,0.080614455,-1.5309811,0.5320636,7.244251
2026-05-10 11:30:31.420,710,1.4836231,-0.5891807,0.080614455,-1.5987871333333334,0.5488114999999999,7.1110315333333345
2026-05-10 11:30:31.430,711,1.51391455,-0.24963346250000001,0.108055075,-2.062052,0.5477934099999999,6.273929725
2026-05-10 11:30:31.440,712,1.356877975,-0.04065785975,0.24525820250000002,-2.1754439,0.495182635,5.96219755
2026-05-10 11:30:31.450,713,1.3512373999999998,-0.023294043,0.25440508,-2.0396790333333334,0.40317106333333336,5.905030866666666
2026-05-10 11:30:31.460,714,1.3502007,0.14770678925,0.22737606999999999,-1.9929478,0.36163223,5.878051
2026-05-10 11:30:31.470,715,1.3041614,0.29410252,0.26678386,-1.9216293,0.17852537,5.6660805
2026-05-10 11:30:31.480,716,1.2799933,0.30038337,0.30727402,-1.8889989333333332,0.1521054483333333,5.645820166666667
2026-05-10 11:30:31.490,717,1.2196137500000002,0.37618047,0.523231745,-1.6354771750000001,-0.019929476249999994,5.5869353
2026-05-10 11:30:31.500,718,1.2075704,0.43941587,0.65820915,-1.0706941,-0.37751472,5.5318427
2026-05-10 11:30:31.510,719,1.619088425,0.59038508,0.7081053374999999,-0.59513548,-0.5723425799999999,5.506873925
2026-05-10 11:30:31.520,720,1.8475469,0.7347380333333334,0.6195483333333333,1.0009027,-0.99082345,5.0035973
2026-05-10 11:30:31.530,721,1.9203407499999998,1.0370117749999999,0.09409085,1.295759725,-1.0466794125,4.590576025
2026-05-10 11:30:31.540,722,1.5760371,1.3796537,-0.8511472,1.385824165,-0.878882325,2.8459449
2026-05-10 11:30:31.550,723,1.5311259,1.3796536999999998,-0.8511472000000001,0.9149234,-0.65041876,2.4107797
2026-05-10 11:30:31.560,724,1.22077245,1.315351175,-0.506767375,-2.0050507,-0.06406449249999999,2.1359285
2026-05-10 11:30:31.570,725,1.1177481,1.2619029,0.06658925,-3.1198416,0.1423316,2.0667098
2026-05-10 11:30:31.580,726,1.5482000000000002,1.3606892000000002,0.6537577,-2.5792256666666664,-0.18605937666666664,2.0949114000000004
2026-05-10 11:30:31.590,727,1.9693832,1.493014,0.8169379,-2.228589,-0.34773505,2.0062342
2026-05-10 11:30:31.600,728,2.5771625,1.8390096,0.819316,-1.0074695,-0.7996225999999999,1.1994339
2026-05-10 11:30:31.610,729,2.59053225,1.863873875,0.78634154,-0.89789555,-0.826233425,1.0786353
2026-05-10 11:30:31.620,730,2.608429825,1.968788625,0.627765295,-0.26145032,-0.77854776,0.11835514
2026-05-10 11:30:31.630,731,2.5417948,2.0597544,0.4488067,-0.26145032,-0.77854776,0.11835514
2026-05-10 11:30:31.640,732,2.6119817333333333,2.0953662666666664,0.40748314,-0.28899016,-0.663756,0.05360342666666667
2026-05-10 11:30:31.650,733,2.7523556,2.16659,0.32483602,-0.34406984,-0.43417248,-0.0759
2026-05-10 11:30:31.660,734,2.9296832,1.9547482,0.2742843,-0.5305365,0.42302418,-1.2492194
2026-05-10 11:30:31.670,735,2.9296832,1.9547482,0.2742843,-0.5305365,0.42302418,-1.2492194
2026-05-10 11:30:31.680,736,2.836842275,1.9332988,0.24538016999999998,-0.5144249175,0.41901538000000005,-1.30698435
2026-05-10 11:30:31.690,737,2.8058953,1.926149,0.23574546,-0.46609017,0.40698898,-1.4802792
2026-05-10 11:30:31.700,738,2.606249633333333,1.7892304666666667,0.22452528666666668,-0.47779843,0.41523566,-1.9141972
2026-05-10 11:30:31.710,739,2.426071575,1.69529715,0.314591515,-0.413670315,0.38282161,-2.277305625
2026-05-10 11:30:31.720,740,2.38972795,1.6719726,0.3647773725,-0.2075414625,0.272369545,-2.492215725
2026-05-10 11:30:31.730,741,2.3610523,1.627473,0.41965863,-0.14660765,0.2396119,-2.5476136
2026-05-10 11:30:31.740,742,2.3610523,1.627473,0.41965863,0.033444874,0.2585487,-2.7687466
2026-05-10 11:30:31.750,743,2.2913532,1.5445414,0.39727926,0.033444874,0.2585487,-2.7687466
2026-05-10 11:30:31.760,744,2.219977,1.4883186,0.365417645,0.093767817,0.37415495,-2.9320003999999997
2026-05-10 11:30:31.770,745,1.7008920000000003,1.1585432,0.2833702,0.268628,0.8526152000000001,-3.4290922
2026-05-10 11:30:31.780,746,1.511551625,0.97648991,0.227696215,0.42122976,0.9345093,-3.503350375
2026-05-10 11:30:31.790,747,1.3174854,0.68147265,0.13180646499999998,0.65118235,0.9804387,-3.9133556
2026-05-10 11:30:31.800,748,1.243914,0.5783264,0.10567688999999998,0.6656904,1.001819,-3.991342733333333
2026-05-10 11:30:31.810,749,1.124272875,0.4360010375,0.1110278175,0.73036575,1.1111639,-4.2725445
2026-05-10 11:30:31.820,750,0.86256552,0.17110754875,0.130175275,0.93554014,1.2457069,-4.5343
2026-05-10 11:30:31.830,751,0.7264448,-0.04463675,0.11311635400000002,1.4271339,0.9636399,-4.561331
2026-05-10 11:30:31.840,752,0.6834545,-0.25214887,-0.014208145,1.9640845,0.41523564,-4.5677447
2026-05-10 11:30:31.850,753,0.691549505,-0.2618902675,-0.02989503625,1.949194675,0.4277202075,-4.5639649250000005
2026-05-10 11:30:31.860,754,0.7239243466666667,-0.28298398666666663,-0.07593939066666666,1.7849481999999999,0.5862779,-4.564538
2026-05-10 11:30:31.870,755,0.7387626,-0.29190728,-0.096347086,1.7849482,0.5862779,-4.564538
2026-05-10 11:30:31.880,756,0.7725451,-0.31946984,-0.12549512,1.6324991500000001,0.749837075,-4.56533975
2026-05-10 11:30:31.890,757,0.7725451,-0.31946984,-0.12549512,1.5816828,0.8043568,-4.565607
2026-05-10 11:30:31.900,758,0.790000375,-0.345934805,-0.1273245,1.386167775,0.99112885,-4.61157445
2026-05-10 11:30:31.910,759,0.76589833,-0.43389725,-0.07918145,1.1024591,1.2504412,-4.704273
2026-05-10 11:30:31.920,760,0.6333092866666666,-0.5113509333333334,-0.0195336602,1.0805696999999999,1.2218322666666668,-4.8832057
2026-05-10 11:30:31.930,761,0.48963221,-0.561054095,0.021815297174999998,1.195616,1.0947850000000001,-4.897497550000001
2026-05-10 11:30:31.940,762,0.24281906,-0.6190605,0.046832,1.5293012,0.76174897,-4.7942233
2026-05-10 11:30:31.950,763,0.148209874,-0.59695555,0.0207329165,1.8138117,0.22327125,-4.549877
2026-05-10 11:30:31.960,764,0.053600688,-0.5748506,-0.005366167000000001,1.8138116999999998,0.22327125,-4.549877
2026-05-10 11:30:31.970,765,-0.031648188,-0.51864305,-0.032943996249999996,1.833283,0.16626988612500002,-4.5153631
2026-05-10 11:30:31.980,766,-0.08236761000000001,-0.49301655,-0.049637043,1.918575,-0.18127427,-4.273155
2026-05-10 11:30:31.990,767,-0.29788323499999997,-0.46498138,-0.06710757275,1.88768815,-0.1835650075,-4.19614775
2026-05-10 11:30:32.000,768,-0.8335852266666667,-0.45561601999999995,-0.07935422533333333,1.8564703666666666,-0.07152213466666667,-3.8664205666666667
2026-05-10 11:30:32.010,769,-1.5011241499999999,-0.411182545,-0.1844619825,1.84832545,-0.035392003,-3.02859345
2026-05-10 11:30:32.020,770,-1.7616271,-0.30111513,-0.30105415,1.7402023,-0.31337386,-1.7863227000000002
2026-05-10 11:30:32.030,771,-1.7616271,-0.30111513,-0.30105415,1.7402023,-0.31337386,-1.7863227000000002
2026-05-10 11:30:32.040,772,-1.7056483,-0.24391668,-0.46478322,1.14525775,-0.6499224124999999,-0.58669790175
2026-05-10 11:30:32.050,773,-1.43461115,-0.27029014749999997,-0.42953725249999997,0.45387288742500004,-0.6768387125,0.19391153975
2026-05-10 11:30:32.060,774,-1.30699705,-0.334470715,-0.31151207000000003,-0.0070249503,-0.5325218,0.63316184
2026-05-10 11:30:32.070,775,-1.1839105333333333,-0.47897103,-0.08161045,-0.7238753233333334,0.04912374333333334,1.7640770333333335
2026-05-10 11:30:32.080,776,-1.1381761,-0.59290045,0.06238169,-0.98868537,0.35231653,2.7299569
2026-05-10 11:30:32.090,777,-1.12623945,-0.6113466375000001,0.07783991,-0.9818895025000001,0.34949127750000003,2.8706468
2026-05-10 11:30:32.100,778,-0.9051341466666667,-0.7315670666666666,0.19356820333333333,-0.5939646333333334,0.15582154266666667,4.928308166666667
2026-05-10 11:30:32.110,779,0.280763335,-0.68398808,0.071802964,-0.3126103,0.12889257,6.178749
2026-05-10 11:30:32.120,780,0.6803446000000001,-0.5891807,-0.073540874,-0.34233906666666664,0.19542598,6.341901
2026-05-10 11:30:32.130,781,0.89395465,-0.511554235,-0.148423297,-0.588721375,0.43669230000000003,6.773503
2026-05-10 11:30:32.140,782,1.1075647,-0.43392777,-0.22330572,-0.77564615,0.5448918,6.878801
2026-05-10 11:30:32.150,783,1.26251275,-0.33572082,-0.262362875,-1.045648575,0.5735261,6.86864525
2026-05-10 11:30:32.160,784,1.5882024,-0.11427496,-0.29745638,-1.6557120250000001,0.5921956749999999,6.760216625
2026-05-10 11:30:32.170,785,1.5882024,-0.11427496,-0.29745638,-1.7690656999999999,0.5888741,6.727459
2026-05-10 11:30:32.180,786,1.7197956,-0.018842563,-0.24507529,-2.3260221,0.66538495,6.449668
2026-05-10 11:30:32.190,787,1.745955525,0.056847833,-0.18525471999999998,-2.7781769,0.82802783,6.056538
2026-05-10 11:30:32.200,788,1.6402787000000003,0.14122775,-0.07506536,-3.1358766999999994,0.93874717,5.667608
2026-05-10 11:30:32.210,789,1.585275475,0.155938975,-0.034102604999999994,-3.1358767,0.93874717,5.667608
2026-05-10 11:30:32.220,790,1.4202658,0.20007265,0.08878566,-3.260493175,0.893848555,5.3467892
2026-05-10 11:30:32.230,791,1.3315004666666665,0.21257338333333334,0.13569896666666667,-3.302032,0.87888235,5.2398496
2026-05-10 11:30:32.240,792,1.05789715,0.26779002500000004,0.30590199,-2.98590935,0.33536500999999996,4.89188505
2026-05-10 11:30:32.250,793,1.125782125,0.48243672,0.77862774,-0.9344710999999999,-1.09589223,4.770628475
2026-05-10 11:30:32.260,794,1.4077345,0.69479665,0.8834052,0.2733622,-1.7183639,4.696332
2026-05-10 11:30:32.270,795,1.6621093,1.0062782,0.2063535,1.19134,-1.7069102999999999,4.414876
2026-05-10 11:30:32.280,796,1.6621093,1.0062782,0.2063535,1.17725185,-0.9747882,3.5327101749999996
2026-05-10 11:30:32.290,797,1.649486425,1.1709676999999998,-0.222314805,1.310038675,-0.873308175,3.3926692999999997
2026-05-10 11:30:32.300,798,1.6452788,1.2258642,-0.36520424,1.7224873,-1.3009902,3.8547125
2026-05-10 11:30:32.310,799,1.24171885,1.2918132,-0.44685531,-1.6586900375,0.2067397075,2.196785975
2026-05-10 11:30:32.320,800,1.0443293,1.2056192,-0.15421632,-2.8586967,0.45799622,1.8457294
2026-05-10 11:30:32.330,801,0.9497963,1.200908525,0.227162645,-2.461099725,0.14401148000000003,2.003676275
2026-05-10 11:30:32.340,802,1.7511184999999998,1.6396486,0.62139803,-0.9609419333333333,-0.84777915,1.8594738666666668
2026-05-10 11:30:32.350,803,2.2956827,1.98314935,0.77199629,0.11236100499999999,-1.142356125,1.0036898
2026-05-10 11:30:32.360,804,2.3808553,2.211897375,0.9146113,1.050726375,-0.7095963375000001,0.2863430925
2026-05-10 11:30:32.370,805,2.391237,2.2729375,0.9448722000000002,1.229519,-0.58169645,0.18066339
2026-05-10 11:30:32.380,806,2.564997275,2.380169425,0.5872751225,1.4121677,-0.10522155500000002,-0.172187635
2026-05-10 11:30:32.390,807,2.7685761,2.4462402,0.19610901,1.5948164,0.37125334,-0.52503866
2026-05-10 11:30:32.400,808,2.81681055,2.4542591,0.12329988,1.483829825,0.5029711649999999,-0.67130272
2026-05-10 11:30:32.410,809,2.76336235,2.4070307499999997,0.15217351,1.1508701,0.89812464,-1.1100949
2026-05-10 11:30:32.420,810,2.5043128333333335,2.2972681666666666,0.35890305666666666,0.8022188,1.30435,-2.1397083
2026-05-10 11:30:32.430,811,2.099954875,2.030453825,0.6063006375,1.081231475,1.260138625,-2.31838635
2026-05-10 11:30:32.440,812,1.9926925249999998,1.91893815,0.648909825,1.5712981,1.1731668,-2.4539983
2026-05-10 11:30:32.450,813,1.99658,1.8239478,0.5818632,2.0836613,1.0108292,-2.5836546
2026-05-10 11:30:32.460,814,2.0179226,1.744736,0.42734203,2.3450352750000003,0.8835401975,-2.8355981999999997
2026-05-10 11:30:32.470,815,1.9442598,1.662536,0.22092752,2.5237896,0.79549927,-3.1497738
2026-05-10 11:30:32.480,816,1.9442598,1.662536,0.22092751999999996,2.4498749333333336,0.8445720899999999,-3.3095150666666666
2026-05-10 11:30:32.490,817,1.8339942,1.625902775,0.1247024,2.3354523,0.9212992999999999,-3.4587571
2026-05-10 11:30:32.500,818,1.797239,1.6136916999999997,0.09262736,2.1030564,1.0778717,-3.6668713
2026-05-10 11:30:32.510,819,1.4858489000000001,1.4538196,0.054454397,2.1030564,1.0778717,-3.6668713
2026-05-10 11:30:32.520,820,1.2042471375,1.26571415,0.06282378675,1.8560759,1.2871694,-3.6967274
2026-05-10 11:30:32.530,821,0.9792848,1.0245923133333334,0.13340209333333333,1.4238760333333333,1.7183129666666666,-3.7404806
2026-05-10 11:30:32.540,822,1.0042388,0.8813861222222223,0.1870502122222222,1.4305107222222222,1.7440371777777777,-3.7671041
2026-05-10 11:30:32.550,823,1.0291928000000001,0.7381799311111112,0.2406983311111111,1.437145411111111,1.7697613888888888,-3.7937276
2026-05-10 11:30:32.560,824,1.0541468,0.59497374,0.29434645,1.4437801,1.7954856,-3.8203511
2026-05-10 11:30:32.570,825,1.0541468,0.59497374,0.29434645,1.8171713,1.5096008,-4.2830815
2026-05-10 11:30:32.580,826,0.8556393333333334,0.3729689133333333,0.22186253666666667,2.0750584333333335,1.1984667333333334,-4.471533633333333
2026-05-10 11:30:32.590,827,0.7382138,0.198273765,0.14912455,2.292653625,0.8812112875,-4.789488875
2026-05-10 11:30:32.600,828,0.73303056,-0.061893854,0.017683959,1.402852,2.2047653,-4.9312096
2026-05-10 11:30:32.610,829,0.6949389199999999,-0.12758875133333333,0.040734081666666665,1.402852,2.2047653,-4.9312096
2026-05-10 11:30:32.620,830,0.6625539,-0.1764432325,0.07869361475,0.9898307500000001,2.730147575,-4.9178089
2026-05-10 11:30:32.630,831,0.6225363,-0.22446433,0.15799703,0.7408268125,3.025539225,-4.895474225
2026-05-10 11:30:32.640,832,0.6091666250000001,-0.24813948749999998,0.19427963250000002,0.7012351125,3.069979725,-4.872070475
2026-05-10 11:30:32.650,833,0.5464953,-0.37630245,0.35349622,0.7250461333333332,3.0684270666666666,-4.8032335
2026-05-10 11:30:32.660,834,0.5339335875,-0.40322475,0.35787147750000003,0.787558,3.0392072,-4.7702465
2026-05-10 11:30:32.670,835,0.49624845,-0.48399164999999994,0.37099725,0.7875580000000001,3.0392072,-4.7702465
2026-05-10 11:30:32.680,836,0.45993538,-0.53015289,0.260472515,1.0261009,3.3156238,-4.5359797
2026-05-10 11:30:32.690,837,0.4488067,-0.54759294,0.21342708,0.8914051,3.8090503,-4.363563
2026-05-10 11:30:32.700,838,0.41502423499999996,-0.56475857,0.162844865,0.8914051,3.8090503,-4.363563
2026-05-10 11:30:32.710,839,0.38124177,-0.5819242,0.11226265,0.63285637,4.395023,-4.1813726
2026-05-10 11:30:32.720,840,0.350782665,-0.5969860499999999,0.09918262,0.63285637,4.395023,-4.1813726
2026-05-10 11:30:32.730,841,0.32032356,-0.6120479,0.08610259,0.47861293,4.6164613,-4.0494256
2026-05-10 11:30:32.740,842,0.23456652666666666,-0.6188369133333333,0.10653061333333334,0.52727852,4.4895541,-3.9555051333333338
2026-05-10 11:30:32.750,843,0.011067718,-0.62003617,0.15037464,0.78526725,3.95733785,-3.67244555
2026-05-10 11:30:32.760,844,-0.040917024,-0.6076574,0.15336262,0.9459248,3.678936,-3.5772269
2026-05-10 11:30:32.770,845,-0.040917024,-0.6076574,0.15336262,0.9459247999999999,3.678936,-3.5772269
2026-05-10 11:30:32.780,846,-0.11404628850000001,-0.5719388525,0.12285777625,1.39685795,2.922532125,-3.37770305
2026-05-10 11:30:32.790,847,-0.5534469325,-0.3954041575,-0.10017353050000001,1.3423382,3.379421125,-2.9205848999999997
2026-05-10 11:30:32.800,848,-0.9106019,-0.18037638,-0.3148964,1.0296134,3.9032762,-2.5712845
2026-05-10 11:30:32.810,849,-0.9106019,-0.18037638,-0.3148964,0.8110763375,4.0013201,-2.357443375
2026-05-10 11:30:32.820,850,-1.0202017666666667,-0.09187528,-0.3537198,0.7382306499999999,4.0340014,-2.286163
2026-05-10 11:30:32.830,851,-1.1881791,0.11232363,-0.41209725,-0.005039635000000001,4.039880849999999,-1.4033864999999999
2026-05-10 11:30:32.840,852,-1.1810902749999999,0.1295045125,-0.42078678,-0.22021692,4.014148,-1.122923
2026-05-10 11:30:32.850,853,-1.0312186,0.23720895,-0.37459501999999995,-1.4405729999999999,4.2372665,0.24969117
2026-05-10 11:30:32.860,854,-1.058552575,0.2338398575,-0.2620122325,-1.5982144,4.130174375,0.77927317
2026-05-10 11:30:32.870,855,-1.0987227,0.20757309,-0.07945585,-1.89104795,3.7619373,2.106225225
2026-05-10 11:30:32.880,856,-0.96806465,0.16309895,-0.09421281,-2.393217433333333,3.6731836999999996,3.061605666666667
2026-05-10 11:30:32.890,857,-0.4857143175,0.00811022925,-0.091118125,-3.0330987,3.7517817,3.8363864
2026-05-10 11:30:32.900,858,-0.25629544,-0.107445297,-0.01853766833333333,-3.407457166666667,3.8156170333333335,4.152814800000001
2026-05-10 11:30:32.910,859,-0.014009964,-0.2591614625,0.158881213125,-3.8050414,3.707684825,4.5381563
2026-05-10 11:30:32.920,860,0.38093685,-0.361972335,0.51853639,-3.8369210000000002,3.083456825,4.914067599999999
2026-05-10 11:30:32.930,861,0.44301364,-0.35935023,0.5741799,-3.6119953333333332,2.4935009666666668,5.113553133333333
2026-05-10 11:30:32.940,862,0.5689051199999999,-0.303493315,0.6780274,-2.83296395,1.2363148750000001,5.3779812
2026-05-10 11:30:32.950,863,0.8096204,-0.1749492325,0.80638853,-2.4782803,0.77396625,5.443573
2026-05-10 11:30:32.960,864,0.9244442,-0.102262065,0.83090216,-2.4782803,0.77396625,5.443573
2026-05-10 11:30:32.970,865,0.95090918,-0.06917070366666667,0.7765900533333333,-1.5426383666666668,0.24159719933333332,5.5510850000000005
2026-05-10 11:30:32.980,866,0.9356034025,-0.050155366,0.6896744125000001,-1.143501575,0.6697373744999999,5.707428325
2026-05-10 11:30:32.990,867,0.9479211,-0.06854059,0.5672282,-1.4908165999999998,2.4689646,6.0700154
2026-05-10 11:30:33.000,868,1.12460825,0.019360880000000004,0.6465316,-1.4908166,2.4689646,6.0700154
2026-05-10 11:30:33.010,869,1.0117968025000001,0.31215236,0.67923168,1.305991675,0.40458370499999996,4.581947525
2026-05-10 11:30:33.020,870,0.91529727,0.38044903,0.66369724,2.1445951,-0.25809056,4.1291437
2026-05-10 11:30:33.030,871,1.0895149,1.2632444,-1.050854,-0.37946182250000005,0.653893115,4.0939043999999996
2026-05-10 11:30:33.040,872,1.165068,1.2864165,-0.79925394,-2.2412646,1.7971655,3.8324158
2026-05-10 11:30:33.050,873,1.3321204,1.40206345,-0.359868552,-3.1102968,2.010128375,3.138396575
2026-05-10 11:30:33.060,874,1.6133258666666668,1.6127972666666668,0.6371916386666666,-2.9248228,1.563815,2.3538165
2026-05-10 11:30:33.070,875,1.6366503749999999,1.7058464249999998,1.268366635,-2.219617,1.09936655,1.922812875
2026-05-10 11:30:33.080,876,1.6253997,1.721015,1.3858125,-1.803999575,0.8505917000000001,1.693891125
2026-05-10 11:30:33.090,877,1.4133599000000001,1.83608275,1.153436175,-0.6011677925,0.8201629549999999,1.1592313425
2026-05-10 11:30:33.100,878,1.1886669,1.9350519666666666,1.0166446999999998,0.011504620000000002,2.354783633333333,0.9107492133333333
2026-05-10 11:30:33.110,879,1.3942276,1.943467,1.7733961,0.627664,2.3570235,1.0291553
2026-05-10 11:30:33.120,880,2.6214945,2.1565282,1.8515716,3.426305025,0.9513462675,0.605863775
2026-05-10 11:30:33.130,881,2.6214945,2.1565282,1.8515716,4.783533,0.25244007,-0.1348485
2026-05-10 11:30:33.140,882,2.7134663249999997,2.1901124999999997,1.7417481,4.783533,0.25244007,-0.1348485
2026-05-10 11:30:33.150,883,3.0036101333333334,2.3452588666666667,1.0151812333333332,4.838816333333334,0.28415414666666666,-0.43422340000000004
2026-05-10 11:30:33.160,884,2.9965467500000003,2.3689492999999997,0.71653575,4.8422525,0.4579962,-1.14617415
2026-05-10 11:30:33.170,885,2.9823692,2.365443,0.61643845,4.520861,0.7892379,-1.485777
2026-05-10 11:30:33.180,886,2.9390129999999997,2.32353,0.5294821466666667,3.3220380000000005,1.8877263,-2.1001546
2026-05-10 11:30:33.190,887,2.7678444,2.117837,0.50634052,3.322038,1.8877263,-2.1001546
2026-05-10 11:30:33.200,888,2.54161165,1.801873375,0.9152363000000001,1.9130008,3.25961505,-2.717815875
2026-05-10 11:30:33.210,889,2.3788177333333334,1.6135087666666668,1.1910450333333333,2.146834966666667,3.0917925000000004,-2.8694885666666665
2026-05-10 11:30:33.220,890,2.08670715,1.2718272750000001,1.254280475,3.221588675,2.5104652499999998,-3.0341677
2026-05-10 11:30:33.230,891,2.0085928,1.1785444,1.2437311,3.928474475,2.36095605,-3.0749809999999997
2026-05-10 11:30:33.240,892,1.9634886,1.1247811,1.1324034666666667,4.0610323,2.3625214,-3.0752481999999994
2026-05-10 11:30:33.250,893,1.8111271,0.923453275,0.739845,4.124371375,2.444758975,-3.1313715249999996
2026-05-10 11:30:33.260,894,1.7904094,0.8921862,0.6832106,4.1454844,2.4721715,-3.1500793
2026-05-10 11:30:33.270,895,1.7459962333333332,0.8514114666666668,0.6116210666666667,4.059505,2.6145031,-3.268129
2026-05-10 11:30:33.280,896,1.5357908500000002,0.6787896200000001,0.34316029000000003,3.770069375,2.7901651,-3.3320408
2026-05-10 11:30:33.290,897,1.312302175,0.41424673749999996,-0.0010061559999999994,2.844226825,3.252055675,-3.6015469
2026-05-10 11:30:33.300,898,1.2451132666666667,0.2979442133333333,-0.0059353056666666655,2.6740627,3.3253977,-3.6612208
2026-05-10 11:30:33.310,899,1.132627,0.11695804,0.007073583,2.299067725,3.5492033999999997,-3.876321775
2026-05-10 11:30:33.320,900,1.020943675,0.00280504,0.06113161575000001,2.1740694,3.6238053,-3.9480221
2026-05-10 11:30:33.330,901,0.61302357,-0.398895225,0.19083430499999998,2.2110267,3.7778962,-4.157854
2026-05-10 11:30:33.340,902,0.56942344,-0.456612,0.16592431,2.2110267,3.7778961999999994,-4.157854
2026-05-10 11:30:33.350,903,0.5495747200000001,-0.50566975,0.105585425,2.61335785,3.779843175,-3.8899899749999998
2026-05-10 11:30:33.360,904,0.50466357,-0.59024785,0.0258246762,2.6846381499999996,3.737159,-3.812066475
2026-05-10 11:30:33.370,905,0.43270817,-0.6743685999999999,0.024574606,2.8831313,3.2143728999999994,-3.5004106
2026-05-10 11:30:33.380,906,0.43270817,-0.6743686,0.024574606,2.8831313,3.2143729,-3.5004106
2026-05-10 11:30:33.390,907,0.5137495,-0.6923575,0.025855167,3.0741793250000002,2.512412325,-3.27572665
2026-05-10 11:30:33.400,908,0.5198474000000001,-0.6459320333333333,-0.09963995766666667,2.6730954666666666,2.773328166666667,-3.4526103
2026-05-10 11:30:33.410,909,0.37878733750000004,-0.5711766,-0.20807617,2.4668267,2.920394,-3.5463781
2026-05-10 11:30:33.420,910,0.230287825,-0.50298664,-0.25888706,2.2084305,3.2088752,-3.5992181
2026-05-10 11:30:33.430,911,0.12982465,-0.45197758000000005,-0.2944684,2.114255433333333,3.3000977333333332,-3.5919895
2026-05-10 11:30:33.440,912,0.12982465,-0.45197758,-0.2944684,1.9259053,3.4825428,-3.5775323
2026-05-10 11:30:33.450,913,-0.19360884666666667,-0.35376049,-0.35516301,1.289842,3.8754818000000006,-3.3208163
2026-05-10 11:30:33.460,914,-0.32239684,-0.34636167,-0.36020395,1.289842,3.8754818,-3.3208163
2026-05-10 11:30:33.470,915,-0.32239684,-0.34636167,-0.36020395,1.26220035,3.826689,-3.25224665
2026-05-10 11:30:33.480,916,-0.670404985,-0.27434528,-0.34971553,1.2789228000000001,3.4783431,-3.0865494
2026-05-10 11:30:33.490,917,-0.83966285,-0.2770080366666667,-0.3721355466666667,1.3250685666666666,3.0255645999999996,-2.9477811333333332
2026-05-10 11:30:33.500,918,-0.9981374875,-0.3260708575,-0.4202989175,1.2539918,2.49374275,-2.75420045
2026-05-10 11:30:33.510,919,-1.26115585,-0.4838087125,-0.43200691999999996,0.749226215,1.66147715,-1.9692005
2026-05-10 11:30:33.520,920,-1.2927583,-0.50765157,-0.41904885,-0.034055736,1.5499178,-0.93874717
2026-05-10 11:30:33.530,921,-1.3222722999999998,-0.5459464925,-0.3182350325,-0.185092177,1.607720925,-0.66336148
2026-05-10 11:30:33.540,922,-1.252817,-0.5953396,-0.17226616,-1.0010555,2.0027218,0.8593347
2026-05-10 11:30:33.550,923,-1.0364628933333335,-0.6798567333333333,-0.16157447333333333,-1.5726217,2.332079933333333,1.8823303666666666
2026-05-10 11:30:33.560,924,-0.88047817,-0.7419335499999999,-0.14732567000000002,-2.0336468,2.56425955,2.6971228500000004
2026-05-10 11:30:33.570,925,-0.8326705,-0.7617518,-0.13842271,-2.2088888,2.6317601,3.0004175
2026-05-10 11:30:33.580,926,-0.8326705,-0.7617518,-0.13842271,-2.2088888,2.6317601,3.0004174999999997
2026-05-10 11:30:33.590,927,-0.7523152,-0.78189016,-0.1151591575,-2.3540837999999997,2.6283621750000004,3.30753
2026-05-10 11:30:33.600,928,-0.5112493,-0.84230524,-0.0453685,-2.7896688,2.6181684,4.2288675
2026-05-10 11:30:33.610,929,-0.261153431,-0.9043617033333332,0.003333527666666667,-3.0221030666666664,2.4612778,4.9304463
2026-05-10 11:30:33.620,930,1.4802235499999998,-0.65433696,0.10569214,-3.671834525,1.01945771,7.1008122
2026-05-10 11:30:33.630,931,2.1548818499999998,-0.340721085,0.238855405,-4.077334575,0.4100814675000001,7.123147
2026-05-10 11:30:33.640,932,2.102135,-0.16720487000000003,0.32764107,-4.220518833333333,0.6677775,6.254242333333333
2026-05-10 11:30:33.650,933,2.102135,-0.16720487,0.32764107,-4.236045,0.7464773,6.001446
2026-05-10 11:30:33.660,934,1.618021325,0.017805924999999993,0.4024015275,-4.0126974,0.5459608,5.8615575
2026-05-10 11:30:33.670,935,1.0985397,0.28873634,0.56247187,-3.44528,-0.33261612,6.243043
2026-05-10 11:30:33.680,936,1.2746323,0.3263605,0.583113315,-3.167947,-0.795652,6.719212
2026-05-10 11:30:33.690,937,1.8029101,0.43923298000000005,0.64503765,-2.663067,-0.9778934666666667,6.535596366666667
2026-05-10 11:30:33.700,938,2.570333,0.7849848,0.6446108,-2.1470387,-1.0334313,6.0661974
2026-05-10 11:30:33.710,939,2.424242175,1.130569025,0.749144335,-1.11116387,-0.9570349625000001,3.5218291
2026-05-10 11:30:33.720,940,1.8774267,1.3281263,0.9451771399999999,-0.96990126,-0.97387195,3.1870368
2026-05-10 11:30:33.730,941,1.73484215,1.353768,0.98130728,-0.42814017,-1.1172725125,2.5369233
2026-05-10 11:30:33.740,942,1.295090825,1.4446726,1.0543907750000001,1.219134325,-1.529148425,2.0490710749999996
2026-05-10 11:30:33.750,943,1.3577011333333333,1.5269996666666668,0.7808585899999999,1.8569285999999998,-1.4083498333333333,2.0394244666666665
2026-05-10 11:30:33.760,944,2.0145078,1.8549559,-0.011494577999999998,0.7117344,-0.0564287,0.88560192
2026-05-10 11:30:33.770,945,2.3245869,1.9763349000000001,-0.1355567,-0.7350745066666665,0.6723081,-0.35028032
2026-05-10 11:30:33.780,946,2.3138698,1.981060775,-0.09261211825,-0.88438016,0.677755,-0.5644395
2026-05-10 11:30:33.790,947,2.2707117500000003,1.97782885,0.2612957385,-0.9315694800000001,0.56138517,-0.7841219
2026-05-10 11:30:33.800,948,2.259705,1.9604193,0.48636985,-0.87531896,0.29555697333333336,-1.1479685
2026-05-10 11:30:33.810,949,2.259705,1.9604193,0.48636985,-0.82359904,0.22082779,-1.2200506
2026-05-10 11:30:33.820,950,2.270661,1.9343608333333333,0.5416982766666667,-0.6216062766666667,0.12242758000000001,-1.3273083666666667
2026-05-10 11:30:33.830,951,2.281617,1.9083023666666667,0.5970267033333333,-0.41961351333333335,0.02402737000000002,-1.4345661333333333
2026-05-10 11:30:33.840,952,2.292573,1.8822439,0.65235513,-0.21762075,-0.07437284,-1.5418239
2026-05-10 11:30:33.850,953,2.292573,1.8822439,0.65235513,-0.21762075,-0.07437284,-1.5418239
2026-05-10 11:30:33.860,954,2.347332,1.8657186,0.59747386,0.1769982,-0.028405234,-1.733941
2026-05-10 11:30:33.870,955,2.347332,1.8657186,0.59747386,0.1769982,-0.028405234,-1.733941
2026-05-10 11:30:33.880,956,2.3986460000000003,1.8291005999999999,0.46539299,0.301156565,0.072082103,-1.9145281
2026-05-10 11:30:33.890,957,2.533786,1.8038654,0.23794070666666667,0.3400992233333333,0.2115629933333333,-2.329891066666667
2026-05-10 11:30:33.900,958,2.61009125,1.817148725,0.1926026975,0.281990665,0.20547979,-2.47984575
2026-05-10 11:30:33.910,959,2.713268,1.8399245,0.19964579,0.12507465,-0.03390302,-2.9868257
2026-05-10 11:30:33.920,960,2.8807166666666664,1.8463069666666667,0.23375347666666668,0.12507465,-0.03390302,-2.9868256999999994
2026-05-10 11:30:33.930,961,2.96672775,1.8430039,0.26734792,0.0888808865,-0.045280385,-3.133738775
2026-05-10 11:30:33.940,962,2.418128825,1.50702385,0.403377205,-0.38881573,0.344833415,-4.3632575
2026-05-10 11:30:33.950,963,1.9509268000000002,1.2663137000000002,0.5316164,-0.5412266066666667,0.6384050666666666,-4.4943901
2026-05-10 11:30:33.960,964,1.7786404,1.1670803,0.646867,-0.603343955,0.9065622,-4.47176265
2026-05-10 11:30:33.970,965,1.7786404,1.1670803,0.646867,-0.5043455825,1.108644075,-4.402200325
2026-05-10 11:30:33.980,966,1.6675974,1.0856731,0.7723011999999999,-0.29978213,1.1991285,-4.3770022
2026-05-10 11:30:33.990,967,1.580259975,0.994417775,0.79192125,-0.22918901249999998,1.195348775,-4.3854397249999995
2026-05-10 11:30:34.000,968,1.17772115,0.56896612,0.75284885,1.484173485,0.936723725,-4.689306875
2026-05-10 11:30:34.010,969,1.0044488333333332,0.39207571999999996,0.6286342666666667,2.0701205333333332,0.8364272666666667,-4.784550933333333
2026-05-10 11:30:34.020,970,0.8361311250000001,0.138026344,0.343617615,2.705751225,0.600976865,-4.7744845
2026-05-10 11:30:34.030,971,0.7741305,-0.028965104000000002,0.16348514,2.9326113666666664,0.39680787333333334,-4.740110666666666
2026-05-10 11:30:34.040,972,0.71601737,-0.25836873,0.031221334,2.934634825,0.2524400625,-4.7060295
2026-05-10 11:30:34.050,973,0.71601737,-0.25836873,0.031221334,2.8848112,0.17272215,-4.692972
2026-05-10 11:30:34.060,974,0.6815641,-0.39920011,-0.12073874999999999,2.658791,0.1740966,-4.6448665
2026-05-10 11:30:34.070,975,0.6551398,-0.48336152666666665,-0.17866896,2.0514383,0.47245335666666666,-4.565352266666667
2026-05-10 11:30:34.080,976,0.604455985,-0.5677465500000001,-0.18136729499999998,1.8177823,0.59391373,-4.5474334
2026-05-10 11:30:34.090,977,0.5258538625,-0.62907635,-0.10785690416749999,1.4706581,0.6336199775,-4.55487875
2026-05-10 11:30:34.100,978,0.43959883,-0.6799787,-0.00024391667,1.3891076,0.58368176,-4.566218
2026-05-10 11:30:34.110,979,0.04445381749999999,-0.872276485,0.06520197350000001,1.7900261,0.2350304065,-4.0709205
2026-05-10 11:30:34.120,980,-0.1428132,-0.9325544,-0.018842563,2.0891593,0.011759156,-3.503465
2026-05-10 11:30:34.130,981,-0.2082591,-0.904321065,-0.1102960665,2.0891593,0.011759156,-3.503465
2026-05-10 11:30:34.140,982,-0.3524291,-0.816663505,-0.245014295,1.5654567,0.085406595,-3.32299235
2026-05-10 11:30:34.150,983,-1.033048,-0.6218656,-0.23086715,0.9574294999999999,0.19384790666666665,-3.345352633333333
2026-05-10 11:30:34.160,984,-1.6815005,-0.52594535,-0.060369378,0.5512677,0.048220172500000005,-2.718235825
2026-05-10 11:30:34.170,985,-2.014904125,-0.540915725,0.095752538,0.3880903375,-0.1779908625,-1.601154175
2026-05-10 11:30:34.180,986,-1.5568591666666667,-0.42120343333333327,0.03713631333333333,0.41757729666666665,0.13143783466666667,0.5944737066666667
2026-05-10 11:30:34.190,987,-1.067181175,-0.3453250375,-0.0941975675,-0.15477797249999997,0.6961572874999999,1.8369482
2026-05-10 11:30:34.200,988,-0.6756085066666667,-0.3814247,-0.10791279999999999,-1.542282,1.8784105999999998,3.472769
2026-05-10 11:30:34.210,989,-0.43743405,-0.4230125,-0.08192551,-1.628834,1.92468365,3.531106625
2026-05-10 11:30:34.220,990,-0.35672814,-0.4429527,-0.05683258,-1.88849,2.0635028,3.7061195
2026-05-10 11:30:34.230,991,-0.3195714966666667,-0.4813086,-0.0063011766666666675,-1.9997692333333335,2.0243565333333335,3.8728856666666664
2026-05-10 11:30:34.240,992,-0.2240984375,-0.5817565375,0.130312485,-2.2223277,1.946064,4.206418
2026-05-10 11:30:34.250,993,-0.11931589999999999,-0.66800645,0.24814456333333335,-2.107638,1.4220943000000001,5.105917
2026-05-10 11:30:34.260,994,-0.09866429,-0.6755272,0.25373432,-1.914489925,0.9912815850000001,6.07161855
2026-05-10 11:30:34.270,995,0.1741565,-0.6680878,0.21928109,-1.7907515,0.70661837,6.7470064
2026-05-10 11:30:34.280,996,1.542224,-0.5215548,-0.155131,-2.0114774,0.5643886,7.867486333333335
2026-05-10 11:30:34.290,997,1.6507822,-0.482711075,-0.210088475,-2.4689645,0.733381865,8.1020585
2026-05-10 11:30:34.300,998,2.3351057500000003,-0.2689028975,-0.38900135,-4.29663515,0.936800015,7.66738925
2026-05-10 11:30:34.310,999,2.32848955,-0.242087305,-0.16680851000000002,-4.809151,0.8378398499999999,7.30995685
2026-05-10 11:30:34.320,1000,2.1300430333333336,-0.24048150999999998,0.15196008666666666,-5.192099666666667,0.43478333333333335,6.6125145000000005
2026-05-10 11:30:34.330,1001,1.9854817,-0.22604977,0.3357513,-5.135391,0.1919644,6.3884287
