timestamp,id,acc_x,acc_y,acc_z,gyro_x,gyro_y,gyro_z
2026-05-10 11:27:11.500,1,0.6408301,0.16226557,0.4074628,-0.8709411,-0.8061894,-0.07238753
2026-05-10 11:27:11.510,2,0.6408301,0.16226557,0.4074628,-0.6953173500000001,-1.15025925,0.14737123500000002
2026-05-10 11:27:11.520,3,0.6408301,0.16226557,0.4074628,-0.5196936,-1.4943291,0.36713
2026-05-10 11:27:11.530,4,0.6408301,0.16226557,0.4074628,-0.5196936,-1.4943291,0.36713
2026-05-10 11:27:11.540,5,0.3670336,0.012927583,0.46441734,-0.5196936,-1.4943291,0.36713
2026-05-10 11:27:11.550,6,0.3670336,0.012927583,0.46441734,-0.5196936,-1.4943291,0.36713
2026-05-10 11:27:11.560,7,0.3670336,0.012927583,0.46441734,-0.5196936,-1.4943291,0.36713
2026-05-10 11:27:11.570,8,0.3670336,0.012927583,0.46441734,-0.5196936,-1.4943291,0.36713
2026-05-10 11:27:11.580,9,0.3670336,0.012927583,0.46441734,-0.5196936,-1.4943291,0.36713
2026-05-10 11:27:11.590,10,0.3670336,0.012927583,0.46441734,-0.5196936,-1.4943291,0.36713
2026-05-10 11:27:11.600,11,0.3670336,0.012927583,0.46441734,-0.80934556,-0.8313367,-0.049989133333333345
2026-05-10 11:27:11.610,12,0.3670336,0.012927583,0.46441734,-0.95417154,-0.4998405,-0.2585487
2026-05-10 11:27:11.620,13,0.3670336,0.012927583,0.46441734,-0.95417154,-0.4998405,-0.2585487
2026-05-10 11:27:11.630,14,0.3670336,0.012927583,0.46441734,-0.95417154,-0.4998405,-0.2585487
2026-05-10 11:27:11.640,15,0.3670336,0.012927583,0.46441734,-0.95417154,-0.4998405000000001,-0.2585487
2026-05-10 11:27:11.650,16,0.3670336,0.012927583,0.46441734,-0.95417154,-0.4998405,-0.2585487
2026-05-10 11:27:11.660,17,0.3670336,0.012927583,0.46441734,-0.95417154,-0.4998405,-0.2585487
2026-05-10 11:27:11.670,18,0.3670336,0.012927583,0.46441734,-0.95417154,-0.4998405,-0.2585487
2026-05-10 11:27:11.680,19,0.3670336,0.012927583,0.46441734,-0.95417154,-0.4998405,-0.2585487
2026-05-10 11:27:11.690,20,0.3670336,0.012927583,0.46441734,-0.95417154,-0.4998405000000001,-0.2585487
2026-05-10 11:27:11.700,21,0.227116905,-0.0219829885,0.42042087,-0.89682657,-0.609719875,-0.1363756585
2026-05-10 11:27:11.710,22,0.08720021,-0.05689356,0.3764244,-0.8394816,-0.71959925,-0.014202617
2026-05-10 11:27:11.720,23,0.08720021,-0.05689356,0.37642440000000005,-0.8394816,-0.71959925,-0.014202617
2026-05-10 11:27:11.730,24,0.10195717,-0.072443254,0.31123766,-0.8394816,-0.71959925,-0.014202617
2026-05-10 11:27:11.740,25,0.3302174425,-0.0611925985,0.19237403000000003,-0.7922922375,-0.9177486875,0.12301298575
2026-05-10 11:27:11.750,26,0.4063042,-0.05744238,0.15275282,-0.77656245,-0.9837985,0.16875152
2026-05-10 11:27:11.760,27,0.40630419999999995,-0.057442379999999994,0.15275282,-0.77656245,-0.9837985000000001,0.16875151999999996
2026-05-10 11:27:11.770,28,0.4063042,-0.05744238,0.15275282,-0.77656245,-0.9837985,0.16875152
2026-05-10 11:27:11.780,29,0.4063042,-0.05744238,0.15275282,-0.77656245,-0.9837985,0.16875152
2026-05-10 11:27:11.790,30,0.4063042,-0.05744238,0.15275282,-0.77656245,-0.9837985,0.16875152
2026-05-10 11:27:11.800,31,0.4063042,-0.05744238,0.15275282,-0.643699255,-1.62360345,0.37461310999999997
2026-05-10 11:27:11.810,32,0.4063042,-0.05744238,0.15275282,-0.51083606,-2.2634084,0.5804747
2026-05-10 11:27:11.820,33,0.40630419999999995,-0.057442379999999994,0.15275282,-0.51083606,-2.2634084,0.5804747
2026-05-10 11:27:11.830,34,0.4063042,-0.05744238,0.15275282,-0.51083606,-2.2634084,0.5804747
2026-05-10 11:27:11.840,35,0.4063042,-0.05744238,0.15275282,-0.51083606,-2.2634084,0.5804747
2026-05-10 11:27:11.850,36,0.4063042,-0.05744238,0.15275282,-0.51083606,-2.2634084,0.5804747
2026-05-10 11:27:11.860,37,0.4063042,-0.05744238,0.15275282,-0.51083606,-2.2634084,0.5804747
2026-05-10 11:27:11.870,38,0.4063042,-0.05744238,0.15275282,-0.51083606,-2.2634084,0.5804747
2026-05-10 11:27:11.880,39,0.40630419999999995,-0.057442379999999994,0.15275282,-0.51083606,-2.2634084,0.5804747
2026-05-10 11:27:11.890,40,0.4063042,-0.05744238,0.15275282,-0.51083606,-2.2634084,0.5804747
2026-05-10 11:27:11.900,41,0.4063042,-0.05744238,0.15275282,-0.51083606,-2.2634084,0.5804747
2026-05-10 11:27:11.910,42,0.4063042,-0.05744238,0.15275282,-0.51083606,-2.2634084,0.5804747
2026-05-10 11:27:11.920,43,0.4063042,-0.05744238,0.15275282,-0.51083606,-2.2634084,0.5804747
2026-05-10 11:27:11.930,44,0.4063042,-0.05744238,0.15275282,-0.51083606,-2.2634084,0.5804747
2026-05-10 11:27:11.940,45,0.40630419999999995,-0.057442379999999994,0.15275282,-0.51083606,-2.2634084,0.5804747
2026-05-10 11:27:11.950,46,0.4063042,-0.05744238,0.15275282,-0.51083606,-2.2634084,0.5804747
2026-05-10 11:27:11.960,47,0.4063042,-0.05744238,0.15275282,-0.51083606,-2.2634084,0.5804747
2026-05-10 11:27:11.970,48,0.5843634,-0.09768862,-0.025306353,-0.45158213,-3.7403278,0.46074513
2026-05-10 11:27:11.980,49,0.5843634,-0.09768862,-0.025306353,-0.45158213,-3.7403278000000006,0.46074513
2026-05-10 11:27:11.990,50,0.5843634,-0.09768862,-0.025306353,-0.45158213,-3.7403278,0.46074513
2026-05-10 11:27:12.000,51,0.5843634,-0.09768862,-0.025306353,-0.45158213,-3.7403278,0.46074513
2026-05-10 11:27:12.010,52,0.5843634,-0.09768862,-0.025306353,-0.45158213,-3.7403278,0.46074513
2026-05-10 11:27:12.020,53,0.5995167,-0.11689706500000001,-0.031617698,-0.65156415,-3.9467239000000003,0.543441015
2026-05-10 11:27:12.030,54,0.61467,-0.13610551,-0.037929043,-0.8515461700000001,-4.15312,0.6261369
2026-05-10 11:27:12.040,55,0.61467,-0.13610551,-0.037929043,-0.85154617,-4.15312,0.6261369
2026-05-10 11:27:12.050,56,0.61467,-0.13610551,-0.037929043,-0.85154617,-4.15312,0.6261369
2026-05-10 11:27:12.060,57,0.61467,-0.13610551,-0.037929043,-0.85154617,-4.15312,0.6261369
2026-05-10 11:27:12.070,58,0.61467,-0.13610551,-0.037929043,-0.85154617,-4.15312,0.6261369
2026-05-10 11:27:12.080,59,0.6912598600000001,-0.13964228,-0.015732625,-0.8515461700000001,-4.15312,0.6261369
2026-05-10 11:27:12.090,60,0.69125986,-0.13964228,-0.015732625,-0.85154617,-4.15312,0.6261369
2026-05-10 11:27:12.100,61,0.69125986,-0.13964228,-0.015732625,-0.85154617,-4.15312,0.6261369
2026-05-10 11:27:12.110,62,0.69125986,-0.13964228,-0.015732625,-0.85154617,-4.15312,0.6261369
2026-05-10 11:27:12.120,63,0.69125986,-0.13964228,-0.015732625,-0.85154617,-4.15312,0.6261369
2026-05-10 11:27:12.130,64,0.69125986,-0.13964228,-0.015732625,-0.85154617,-4.15312,0.6261369
2026-05-10 11:27:12.140,65,0.69125986,-0.13964228,-0.015732625,-0.85154617,-4.15312,0.6261369
2026-05-10 11:27:12.150,66,0.6912598600000001,-0.13964228,-0.015732625,-0.9829840566666667,-4.131027333333333,0.6868161666666667
2026-05-10 11:27:12.160,67,0.69125986,-0.13964228,-0.015732625,-1.048703,-4.119981,0.7171558
2026-05-10 11:27:12.170,68,0.69125986,-0.13964228,-0.015732625,-1.048703,-4.119981,0.7171558
2026-05-10 11:27:12.180,69,0.6912598600000001,-0.13964228,-0.015732625,-1.048703,-4.119981,0.7171558
2026-05-10 11:27:12.190,70,0.69125986,-0.13964228,-0.015732625,-1.048703,-4.119981,0.7171558
2026-05-10 11:27:12.200,71,0.69125986,-0.13964228,-0.015732625,-1.048703,-4.119981,0.7171558
2026-05-10 11:27:12.210,72,0.69125986,-0.13964228,-0.015732625,-1.048703,-4.119981,0.7171558
2026-05-10 11:27:12.220,73,0.69125986,-0.13964228,-0.015732625,-1.048703,-4.119981,0.7171558
2026-05-10 11:27:12.230,74,0.69125986,-0.13964228,-0.015732625,-1.048703,-4.119981,0.7171558
2026-05-10 11:27:12.240,75,0.6912598600000001,-0.13964228,-0.015732625,-1.048703,-4.119981,0.7171558
2026-05-10 11:27:12.250,76,0.69125986,-0.13964228,-0.015732625,-1.048703,-4.119981,0.7171558
2026-05-10 11:27:12.260,77,0.69125986,-0.13964228,-0.015732625,-1.048703,-4.119981,0.7171558
2026-05-10 11:27:12.270,78,0.69125986,-0.13964228,-0.015732625,-1.048703,-4.119981,0.7171558
2026-05-10 11:27:12.280,79,0.69125986,-0.13964228,-0.015732625,-1.048703,-4.119981,0.7171558
2026-05-10 11:27:12.290,80,0.6912598600000001,-0.13964228,-0.015732625,-1.048703,-4.119981,0.7171558
2026-05-10 11:27:12.300,81,0.69125986,-0.13964228,-0.015732625,-1.048703,-4.119981,0.7171558
2026-05-10 11:27:12.310,82,0.69125986,-0.13964228,-0.015732625,-1.048703,-4.119981,0.7171558
2026-05-10 11:27:12.320,83,0.69125986,-0.13964228,-0.015732625,-1.048703,-4.119981,0.7171558
2026-05-10 11:27:12.330,84,0.69125986,-0.13964228,-0.015732625,-1.048703,-4.119981,0.7171558
2026-05-10 11:27:12.340,85,0.69125986,-0.13964228,-0.015732625,-1.048703,-4.119981,0.7171558
2026-05-10 11:27:12.350,86,0.69125986,-0.13964228,-0.015732625,-1.048703,-4.119981,0.7171558
2026-05-10 11:27:12.360,87,0.69125986,-0.13964228,-0.015732625,-1.48257,-3.7756055,0.8307767500000001
2026-05-10 11:27:12.370,88,0.69125986,-0.13964228,-0.015732625,-1.916437,-3.43123,0.9443977
2026-05-10 11:27:12.380,89,0.69125986,-0.13964228,-0.015732625,-1.916437,-3.43123,0.9443977
2026-05-10 11:27:12.390,90,0.69125986,-0.13964228,-0.015732625,-1.916437,-3.43123,0.9443977
2026-05-10 11:27:12.400,91,0.69125986,-0.13964228,-0.015732625,-1.916437,-3.43123,0.9443977
2026-05-10 11:27:12.410,92,0.90645534,-0.24641682,-0.009817646,-1.916437,-3.43123,0.9443977
2026-05-10 11:27:12.420,93,0.90645534,-0.24641682,-0.009817646,-1.916437,-3.43123,0.9443977
2026-05-10 11:27:12.430,94,0.90645534,-0.24641682,-0.009817646,-1.916437,-3.43123,0.9443977
2026-05-10 11:27:12.440,95,0.90645534,-0.24641682,-0.009817646,-1.916437,-3.43123,0.9443977
2026-05-10 11:27:12.450,96,0.90645534,-0.24641682,-0.009817646,-1.916437,-3.43123,0.9443977
2026-05-10 11:27:12.460,97,1.1848862,-0.30623737,0.10360361,-1.916437,-3.43123,0.9443977
2026-05-10 11:27:12.470,98,1.1848862,-0.30623737,0.10360361,-1.916437,-3.43123,0.9443977
2026-05-10 11:27:12.480,99,1.1848862,-0.30623737,0.10360361,-1.916437,-3.43123,0.9443977
2026-05-10 11:27:12.490,100,1.1848862,-0.30623737,0.10360361,-2.60320225,-2.9178742,1.01415085
2026-05-10 11:27:12.500,101,1.2670860666666668,-0.29774094333333334,0.14649229666666666,-2.9630528,-2.7172305333333333,1.0134763666666666
2026-05-10 11:27:12.510,102,1.308186,-0.29349273,0.16793664,-3.0285172,-2.702468,1.0015136
2026-05-10 11:27:12.520,103,1.308186,-0.29349273,0.16793664,-3.0285172,-2.702468,1.0015136
2026-05-10 11:27:12.530,104,1.308186,-0.29349273,0.16793664,-3.0285172,-2.702468,1.0015136
2026-05-10 11:27:12.540,105,1.308186,-0.29349273,0.16793664,-3.0285172,-2.702468,1.0015136
2026-05-10 11:27:12.550,106,1.5931418,-0.3070301,0.40368208,-3.0285172,-2.702468,1.0015136
2026-05-10 11:27:12.560,107,1.5931418,-0.3070301,0.40368208,-3.2937853,-2.9448287,0.5917757
2026-05-10 11:27:12.570,108,1.5931418,-0.3070301,0.40368208,-3.2937853,-2.9448287,0.5917757
2026-05-10 11:27:12.580,109,1.5931418,-0.3070301,0.40368208,-3.2937853,-2.9448287,0.5917757
2026-05-10 11:27:12.590,110,1.5931418,-0.3070301,0.40368208,-3.2937853,-2.9448287,0.5917757
2026-05-10 11:27:12.600,111,1.5931418,-0.3070301,0.40368208,-3.2937853,-2.9448287,0.5917757
2026-05-10 11:27:12.610,112,1.5931418,-0.3070301,0.40368208,-3.2937853,-2.9448287,0.5917757
2026-05-10 11:27:12.620,113,1.5931418,-0.3070301,0.40368208,-3.2937853,-2.9448287,0.5917757
2026-05-10 11:27:12.630,114,1.5931418,-0.3070301,0.40368208,-3.2937853,-2.9448287,0.5917757
2026-05-10 11:27:12.640,115,1.5931418,-0.3070301,0.40368208,-3.2937853,-2.9448287,0.5917757
2026-05-10 11:27:12.650,116,1.5931418,-0.3070301,0.40368208,-3.2937853,-2.9448287,0.5917757
2026-05-10 11:27:12.660,117,1.5931418,-0.3070301,0.40368208,-3.2937853,-2.9448287,0.5917757
2026-05-10 11:27:12.670,118,1.6417422,-0.3217871,0.47344226,-3.2951598,-3.0917418,0.4071417
2026-05-10 11:27:12.680,119,1.6417422,-0.3217871,0.47344226,-3.2951598,-3.0917418,0.4071417
2026-05-10 11:27:12.690,120,1.6417422,-0.3217871,0.47344226,-3.2951598,-3.0917418,0.4071417
2026-05-10 11:27:12.700,121,1.6417422000000002,-0.3217871,0.47344225999999995,-3.2951598,-3.0917418,0.4071417
2026-05-10 11:27:12.710,122,1.6417422,-0.3217871,0.47344226,-3.2951598,-3.0917418,0.4071417
2026-05-10 11:27:12.720,123,1.6417422,-0.3217871,0.47344226,-3.2951598,-3.0917418,0.4071417
2026-05-10 11:27:12.730,124,1.6417422,-0.3217871,0.47344226,-3.2951598,-3.0917418,0.4071417
2026-05-10 11:27:12.740,125,1.6417422,-0.3217871,0.47344226,-3.2951598,-3.0917418,0.4071417
2026-05-10 11:27:12.750,126,1.6417422000000002,-0.3217871,0.47344225999999995,-3.2951598,-3.0917418,0.4071417
2026-05-10 11:27:12.760,127,1.6417422,-0.3217871,0.47344226,-3.2951598,-3.0917418,0.4071417
2026-05-10 11:27:12.770,128,1.6417422,-0.3217871,0.47344226,-3.2951598,-3.0917418,0.4071417
2026-05-10 11:27:12.780,129,1.6417422,-0.3217871,0.47344226,-3.2951598,-3.0917418,0.4071417
2026-05-10 11:27:12.790,130,1.6417422,-0.3217871,0.47344226,-3.2951598,-3.0917418,0.4071417
2026-05-10 11:27:12.800,131,1.6417422,-0.3217871,0.47344226,-3.2951598,-3.0917418,0.4071417
2026-05-10 11:27:12.810,132,1.6417422,-0.3217871,0.47344226,-3.2951598,-3.0917418,0.4071417
2026-05-10 11:27:12.820,133,1.6417422000000002,-0.3217871,0.47344225999999995,-3.2951598,-3.0917418,0.4071417
2026-05-10 11:27:12.830,134,1.6417422,-0.3217871,0.47344226,-3.2951598,-3.0917418,0.4071417
2026-05-10 11:27:12.840,135,1.6417422,-0.3217871,0.47344226,-3.2951598,-3.0917418,0.4071417
2026-05-10 11:27:12.850,136,1.6417422,-0.3217871,0.47344226,-3.2951598,-3.0917418,0.4071417
2026-05-10 11:27:12.860,137,1.6417422,-0.3217871,0.47344226,-3.2951598,-3.0917418,0.4071417
2026-05-10 11:27:12.870,138,1.6417422,-0.3217871,0.47344226,-3.2951598,-3.0917418,0.4071417
2026-05-10 11:27:12.880,139,1.6417422,-0.3217871,0.47344226,-3.2951598,-3.0917418,0.4071417
2026-05-10 11:27:12.890,140,1.6417422,-0.3217871,0.47344226,-3.2951598,-3.0917418,0.4071417
2026-05-10 11:27:12.900,141,1.6417422000000002,-0.3217871,0.47344225999999995,-3.2951598,-3.0917418,0.4071417
2026-05-10 11:27:12.910,142,1.711106,-0.30431655,0.5468002000000001,-3.2203288,-3.3414329,0.091935225
2026-05-10 11:27:12.920,143,1.8401989,-0.26931448999999996,0.63381747,-3.12885175,-3.6798522,-0.344528005
2026-05-10 11:27:12.930,144,1.899928,-0.25178298,0.6474768,-3.1122057,-3.7685804,-0.46578476
2026-05-10 11:27:12.940,145,1.9367187333333333,-0.2913178033333333,0.57708651,-3.991240833333334,-3.3045773,-0.7389942366666666
2026-05-10 11:27:12.950,146,1.9037697,-0.3515449,0.49679725999999996,-5.5138226,-2.4356725,-0.91889405
2026-05-10 11:27:12.960,147,1.9037697,-0.3515449,0.49679726,-5.5138226,-2.4356725,-0.91889405
2026-05-10 11:27:12.970,148,1.9037697,-0.3515449,0.49679726,-5.5138226,-2.4356725,-0.91889405
2026-05-10 11:27:12.980,149,1.9037697,-0.3515449,0.49679725999999996,-5.5138226,-2.4356725,-0.91889405
2026-05-10 11:27:12.990,150,1.9037697,-0.3515449,0.49679726,-5.5138226,-2.4356725,-0.91889405
2026-05-10 11:27:13.000,151,1.9037697,-0.3515449,0.49679726,-5.5138226,-2.4356725,-0.91889405
2026-05-10 11:27:13.010,152,1.9037697,-0.3515449,0.49679726,-4.47943685,-3.066887125,-0.9886472374999999
2026-05-10 11:27:13.020,153,1.6856471,-0.49374834,0.7457752,-6.128964,-1.9443841,-0.8371908
2026-05-10 11:27:13.030,154,1.6856471,-0.49374834,0.7457752000000001,-6.128964,-1.9443841,-0.8371908
2026-05-10 11:27:13.040,155,1.6856471,-0.49374834,0.7457752,-6.128964,-1.9443841,-0.8371908
2026-05-10 11:27:13.050,156,1.6856471,-0.49374834,0.7457752,-6.128964,-1.9443841,-0.8371908
2026-05-10 11:27:13.060,157,1.6856471,-0.49374834,0.7457752,-6.128964,-1.9443841,-0.8371908
2026-05-10 11:27:13.070,158,1.6856471,-0.49374834,0.7457752,-6.128964,-1.9443841,-0.8371908
2026-05-10 11:27:13.080,159,1.6856471,-0.49374834,0.7457752000000001,-6.128964,-1.9443841,-0.8371908
2026-05-10 11:27:13.090,160,1.6856471,-0.49374834,0.7457752,-6.128964,-1.9443841,-0.8371908
2026-05-10 11:27:13.100,161,1.6856471,-0.49374834,0.7457752,-6.128964,-1.9443841,-0.8371908
2026-05-10 11:27:13.110,162,1.6856471,-0.49374834,0.7457752,-6.128964,-1.9443841,-0.8371908
2026-05-10 11:27:13.120,163,1.6856471,-0.49374834,0.7457752,-6.128964,-1.9443841,-0.8371908
2026-05-10 11:27:13.130,164,1.6856471,-0.49374834,0.7457752000000001,-6.128964,-1.9443841,-0.8371908
2026-05-10 11:27:13.140,165,1.6856471,-0.49374834,0.7457752,-6.128964,-1.9443841,-0.8371908
2026-05-10 11:27:13.150,166,1.6856471,-0.49374834,0.7457752,-6.128964,-1.9443841,-0.8371908
2026-05-10 11:27:13.160,167,1.5256377,-0.5347263,1.2660495,-7.2592173,-0.75869465,-0.6618725
2026-05-10 11:27:13.170,168,1.5256377,-0.5347263,1.2660495,-7.4371314,-0.33108896,-0.7012733
2026-05-10 11:27:13.180,169,1.5256377,-0.5347263,1.2660495,-7.437131400000001,-0.33108896,-0.7012733
2026-05-10 11:27:13.190,170,1.5256377,-0.5347263,1.2660495,-7.4371314,-0.33108896,-0.7012733
2026-05-10 11:27:13.200,171,1.6969892,-0.44063547,1.7396747,-7.4371314,-0.33108896,-0.7012733
2026-05-10 11:27:13.210,172,1.6969892,-0.44063547,1.7396747,-7.4371314,-0.33108896,-0.7012733
2026-05-10 11:27:13.220,173,1.6969892,-0.44063547,1.7396747,-7.4371314,-0.33108896,-0.7012733
2026-05-10 11:27:13.230,174,1.6969892,-0.44063547,1.7396747,-7.4371314,-0.33108896,-0.7012733
2026-05-10 11:27:13.240,175,1.6969892,-0.44063547,1.7396747,-7.437131400000001,-0.33108896,-0.7012733
2026-05-10 11:27:13.250,176,1.6969892,-0.44063547,1.7396747,-7.4371314,-0.33108896,-0.7012733
2026-05-10 11:27:13.260,177,1.7808966,-0.381912535,1.95243105,-7.3129732,-0.252363705,-0.78259473
2026-05-10 11:27:13.270,178,2.05569925,-0.04201464950000001,2.658935725,-7.188815,-0.17363845,-0.86391616
2026-05-10 11:27:13.280,179,2.119331,0.051710334,2.8235185,-6.709629325,-0.0981584125,-1.07970432
2026-05-10 11:27:13.290,180,2.119331,0.051710334,2.8235185,-5.2720723,0.1282817,-1.7270688000000003
2026-05-10 11:27:13.300,181,2.130856025,0.1552986885,2.87606725,-5.2720723,0.1282817,-1.7270688
2026-05-10 11:27:13.310,182,2.1346977,0.18982814,2.8935835,-5.2720723,0.1282817,-1.7270688
2026-05-10 11:27:13.320,183,2.1346977,0.18982814,2.8935835,-5.2720723,0.1282817,-1.7270688
2026-05-10 11:27:13.330,184,2.1346977,0.18982814,2.8935835,-5.2720723,0.1282817,-1.7270688
2026-05-10 11:27:13.340,185,2.1346977,0.18982814,2.8935835,-5.2720723,0.1282817,-1.7270688000000003
2026-05-10 11:27:13.350,186,2.1346977,0.18982814,2.8935835,-5.2720723,0.1282817,-1.7270688
2026-05-10 11:27:13.360,187,2.1346977,0.18982814,2.8935835,-5.2720723,0.1282817,-1.7270688
2026-05-10 11:27:13.370,188,2.1346977,0.18982814,2.8935835,-5.2720723,0.1282817,-1.7270688
2026-05-10 11:27:13.380,189,2.1346977,0.18982814,2.8935835,-5.2720723,0.1282817,-1.7270688
2026-05-10 11:27:13.390,190,2.1346977,0.18982814,2.8935835,-5.2720723,0.1282817,-1.7270688
2026-05-10 11:27:13.400,191,2.1346977,0.18982814,2.8935835,-4.780529433333333,0.21583904666666665,-1.924276466666667
2026-05-10 11:27:13.410,192,2.1346977,0.18982814,2.8935835,-4.534758,0.25961772,-2.0228803
2026-05-10 11:27:13.420,193,2.1346977,0.18982814,2.8935835,-4.534758,0.25961772,-2.0228803
2026-05-10 11:27:13.430,194,2.1346977,0.18982814,2.8935835,-4.534758,0.25961772,-2.0228803
2026-05-10 11:27:13.440,195,2.1346977,0.18982814,2.8935835,-4.534758,0.25961772,-2.0228803
2026-05-10 11:27:13.450,196,2.1346977,0.18982814,2.8935835,-3.943325925,0.3088687325,-2.27306775
2026-05-10 11:27:13.460,197,2.1346977,0.18982814,2.8935835,-2.1690297,0.45662177,-3.0236301
2026-05-10 11:27:13.470,198,2.1346977,0.18982814,2.8935835,-2.1690297,0.45662177,-3.0236301
2026-05-10 11:27:13.480,199,2.1346977,0.18982814,2.8935835,-2.1690297,0.45662177,-3.0236301
2026-05-10 11:27:13.490,200,1.7018676,0.7634592000000001,2.3378804,-1.0804679,0.28802297,-3.3988543
2026-05-10 11:27:13.500,201,1.7018676,0.7634592,2.3378804,-1.0804679,0.28802297,-3.3988543
2026-05-10 11:27:13.510,202,1.7018676,0.7634592,2.3378804,-1.0804679,0.28802297,-3.3988543
2026-05-10 11:27:13.520,203,1.7018676,0.7634592,2.3378804,-1.0804679,0.28802297,-3.3988543
2026-05-10 11:27:13.530,204,1.7018676,0.7634592,2.3378804,-1.0804679,0.28802297,-3.3988543
2026-05-10 11:27:13.540,205,1.7018676,0.7634592000000001,2.3378804,-1.0804679,0.28802297,-3.3988543
2026-05-10 11:27:13.550,206,1.7018676,0.7634592,2.3378804,-1.0804679,0.28802297,-3.3988543
2026-05-10 11:27:13.560,207,1.7018676,0.7634592,2.3378804,-1.0804679,0.28802297,-3.3988543
2026-05-10 11:27:13.570,208,1.7018676,0.7634592,2.3378804,-1.0804679,0.28802297,-3.3988543
2026-05-10 11:27:13.580,209,1.7018676,0.7634592000000001,2.3378804,-1.0804679,0.28802297,-3.3988543
2026-05-10 11:27:13.590,210,1.7018676,0.7634592,2.3378804,-1.0804679,0.28802297,-3.3988543
2026-05-10 11:27:13.600,211,1.7018676,0.7634592,2.3378804,-1.0804679,0.28802297,-3.3988543
2026-05-10 11:27:13.610,212,1.5972884,0.9096263,2.1489668,-0.6742425,0.25320363,-3.431841
2026-05-10 11:27:13.620,213,1.5972884,0.9096263,2.1489668,-0.6742425,0.25320363,-3.431841
2026-05-10 11:27:13.630,214,1.5972884,0.9096262999999999,2.1489668,-0.6742425,0.25320363,-3.431841
2026-05-10 11:27:13.640,215,1.2543822,0.31794541666666665,1.5778156,0.7184793333333331,-0.8722647133333332,-3.8895826666666666
2026-05-10 11:27:13.650,216,0.9114760000000001,-0.2737354666666666,1.0066644,2.111201166666666,-1.9977330566666665,-4.347324333333333
2026-05-10 11:27:13.660,217,0.5685698,-0.86541635,0.4355132,3.503923,-3.1232014,-4.805066
2026-05-10 11:27:13.670,218,0.5685698,-0.86541635,0.4355132,3.503923,-3.1232014,-4.805066
2026-05-10 11:27:13.680,219,0.5685698,-0.86541635,0.4355132,3.503923,-3.1232014000000006,-4.805066
2026-05-10 11:27:13.690,220,0.5685698,-0.86541635,0.4355132,3.503923,-3.1232014,-4.805066
2026-05-10 11:27:13.700,221,0.5685698,-0.86541635,0.4355132,3.503923,-3.1232014000000006,-4.805066
2026-05-10 11:27:13.710,222,0.5685698,-0.86541635,0.4355132,3.4458908,-3.14931585,-4.736191
2026-05-10 11:27:13.720,223,0.5685698,-0.86541635,0.4355132,3.3878586,-3.1754303,-4.667316
2026-05-10 11:27:13.730,224,0.46854869,-0.9622359875,0.5188869875,3.386598675,-3.334178825,-4.532391225
2026-05-10 11:27:13.740,225,0.43520832,-0.9945092,0.54667825,3.3861787,-3.387095,-4.4874163
2026-05-10 11:27:13.750,226,0.4352083199999999,-0.9945092,0.54667825,3.3861787,-3.387095,-4.4874163
2026-05-10 11:27:13.760,227,0.43520832,-0.9945092,0.54667825,3.3861787,-3.387095,-4.4874163
2026-05-10 11:27:13.770,228,0.39192835249999997,-1.016476975,0.48571432750000004,3.36899815,-3.41038425,-4.448206324999999
2026-05-10 11:27:13.780,229,0.25763697249999995,-1.0833407,0.272973255,3.20185025,-3.375717675,-4.327483875
2026-05-10 11:27:13.790,230,0.24428254,-1.0862219,0.18342534,2.8550315,-3.0621147,-4.3182063
2026-05-10 11:27:13.800,231,0.24428254000000002,-1.0862219,0.18342534,2.8550315000000004,-3.0621147,-4.3182063
2026-05-10 11:27:13.810,232,0.24428254,-1.0862219,0.18342534,2.8550315,-3.0621147,-4.3182063
2026-05-10 11:27:13.820,233,0.24428254,-1.0862219,0.18342534,2.8550315,-3.0621147,-4.3182063
2026-05-10 11:27:13.830,234,0.15330163,-1.1224436,0.07341892,2.8550315,-3.0621147,-4.3182063
2026-05-10 11:27:13.840,235,0.15330163,-1.1224436,0.07341892,2.8550315,-3.0621147,-4.3182063
2026-05-10 11:27:13.850,236,0.15330163,-1.1224436,0.07341892,2.8550315000000004,-3.0621147,-4.3182063
2026-05-10 11:27:13.860,237,0.15330163,-1.1224436,0.07341892,2.8550315,-3.0621147,-4.3182063
2026-05-10 11:27:13.870,238,0.0887246925,-1.1392281,0.04475871075,2.4259368,-2.756185825,-4.309692399999999
2026-05-10 11:27:13.880,239,-0.10500612,-1.1895816,-0.041221917,1.4929546,-2.1612413,-4.262465
2026-05-10 11:27:13.890,240,-0.10500612,-1.1895816,-0.041221917,1.4929546,-2.1612413,-4.262465
2026-05-10 11:27:13.900,241,-0.10500612,-1.1895816,-0.041221917,1.4929546,-2.1612413,-4.262465
2026-05-10 11:27:13.910,242,-0.10500612,-1.1895816,-0.041221917,1.4929546,-2.1612413,-4.262465
2026-05-10 11:27:13.920,243,-0.44508693,-1.3375323,0.03154147425000001,1.161483925,-1.911435575,-4.07519675
2026-05-10 11:27:13.930,244,-0.5584472,-1.3868492,0.055795938,1.068365175,-1.781817575,-3.9225950000000003
2026-05-10 11:27:13.940,245,-0.7443117,-1.3799586,0.027318668,1.2890784,-1.6714801,-3.391371
2026-05-10 11:27:13.950,246,-0.7443117,-1.3799586,0.027318668,1.2890784,-1.6714801,-3.391371
2026-05-10 11:27:13.960,247,-0.7443117,-1.3799586,0.027318668,1.2890784,-1.6714801,-3.391371
2026-05-10 11:27:13.970,248,-0.7443117,-1.3799586,0.027318668,1.392849125,-1.7447838999999998,-3.2463669
2026-05-10 11:27:13.980,249,-0.7443117,-1.3799586,0.027318668,1.7041613,-1.9646953,-2.8113546
2026-05-10 11:27:13.990,250,-0.8400795000000001,-1.3879469,-0.020062141,1.7041613,-1.9646953,-2.8113546
2026-05-10 11:27:14.000,251,-0.9358473000000002,-1.3959352,-0.06744295,1.7041613,-1.9646953,-2.8113546
2026-05-10 11:27:14.010,252,-1.0310815,-1.58193685,-0.510852975,1.413351275,-2.0439169,-2.41249775
2026-05-10 11:27:14.020,253,-1.1599457,-1.7349182,-0.79809535,0.7825184,-1.8695531,-2.2137756
2026-05-10 11:27:14.030,254,-1.1599457,-1.7349182,-0.79809535,0.442877315,-1.67056375,-2.14512965
2026-05-10 11:27:14.040,255,-1.326235925,-1.85872115,-0.8629924375,0.10323623,-1.4715744,-2.0764837
2026-05-10 11:27:14.050,256,-2.1110988,-2.3456042666666668,-0.33371866,-1.3277155566666667,-0.14630223333333334,-0.9620618613333333
2026-05-10 11:27:14.060,257,-2.4419718,-2.5102074,0.0734799,-2.1713204,0.6432411,-0.013897184
2026-05-10 11:27:14.070,258,-2.537038,-2.6720462,0.7251033,-1.4277447,0.84238315,2.2922719
2026-05-10 11:27:14.080,259,-2.4185759333333334,-2.659403166666667,0.7652072333333333,-1.4277447,0.84238315,2.2922719
2026-05-10 11:27:14.090,260,-2.1816518,-2.6341171,0.8454151,-1.4277447,0.84238315,2.2922719
2026-05-10 11:27:14.100,261,-0.2830653,-2.2315326,0.79803437,-0.5149212025000001,2.806505775,5.1332535
2026-05-10 11:27:14.110,262,-0.2830653,-2.2315326,0.79803437,-0.50442195,2.8506026,5.013982
2026-05-10 11:27:14.120,263,1.2550122,-1.4245954,1.0502442,-0.4705953,3.1107548,4.3728789
2026-05-10 11:27:14.130,264,1.238913733333333,-1.3550994666666665,1.0330074333333334,-0.5737551833333333,3.6614244333333335,3.410460666666667
2026-05-10 11:27:14.140,265,1.2067168,-1.2161076,0.9985339,-0.84772825,4.2424593,2.7678304
2026-05-10 11:27:14.150,266,1.2067168,-1.2161076,0.9985339,-0.84772825,4.2424593,2.7678304
2026-05-10 11:27:14.160,267,1.2067168,-1.2161076,0.9985339,-0.84772825,4.2424593,2.7678304
2026-05-10 11:27:14.170,268,1.2067168,-1.2161076,0.9985339,-0.84772825,4.2424593,2.7678304
2026-05-10 11:27:14.180,269,1.2067168,-1.2161076,0.9985339,-0.84772825,4.2424593,2.7678304
2026-05-10 11:27:14.190,270,1.2067168,-1.2161076,0.9985339,-0.84772825,4.2424593,2.7678304
2026-05-10 11:27:14.200,271,0.80986434,-1.1641533,1.0389631,-0.84772825,4.2424593,2.7678304
2026-05-10 11:27:14.210,272,0.80986434,-1.1641533,1.0389631,-1.0344621125,4.54437935,2.6854017499999996
2026-05-10 11:27:14.220,273,0.80986434,-1.1641533,1.0389631,-1.5946637,5.4501395,2.4381158
2026-05-10 11:27:14.230,274,0.80986434,-1.1641533,1.0389631,-1.5946637,5.4501395,2.4381158
2026-05-10 11:27:14.240,275,0.80986434,-1.1641533,1.0389631,-1.5946637,5.4501395,2.4381158
2026-05-10 11:27:14.250,276,0.80986434,-1.1641533,1.0389631,-1.5946637,5.4501395,2.4381158
2026-05-10 11:27:14.260,277,0.3258117,-1.22223595,1.05512255,-2.1384865250000002,6.216279125,2.91493445
2026-05-10 11:27:14.270,278,0.22728969333333335,-0.9325950233333332,1.25537815,-3.2526539,5.5305192666666665,5.2981869
2026-05-10 11:27:14.280,279,1.3036127,-0.58479017,1.8029711,-4.4437394,4.3875394,7.466453
2026-05-10 11:27:14.290,280,1.3036127,-0.58479017,1.8029711,-4.4437394,4.3875394,7.466453
2026-05-10 11:27:14.300,281,1.3036127,-0.58479017,1.8029711,-4.5086816,4.4891341,7.52990675
2026-05-10 11:27:14.310,282,1.3036127,-0.58479017,1.8029711,-4.530329,4.522999,7.551058
2026-05-10 11:27:14.320,283,1.3036127,-0.58479017,1.8029711,-4.530329,4.522999,7.551058
2026-05-10 11:27:14.330,284,1.7555293,-0.42054280499999996,2.06176675,-4.54560075,4.7599765000000005,7.63371565
2026-05-10 11:27:14.340,285,2.4557226,-0.1250987615,2.34553325,-4.366083,5.49526735,7.7611954
2026-05-10 11:27:14.350,286,2.7622953,0.12297465233333334,2.3122893666666666,-4.14075,5.5196257,7.6407022
2026-05-10 11:27:14.360,287,2.7914433,0.18141302,2.283182,-3.8760927,5.4523542,7.4251431
2026-05-10 11:27:14.370,288,2.7914433,0.18141302,2.283182,-3.6114354,5.3850827,7.209584
2026-05-10 11:27:14.380,289,2.73191235,0.24737724500000002,2.1519243,-3.4505487,5.357746349999999,7.073743
2026-05-10 11:27:14.390,290,2.6277142,0.34233707,1.9129775,-3.232546,5.3394203,6.8762045
2026-05-10 11:27:14.400,291,2.6277142,0.34233706999999997,1.9129775,-3.2325460000000006,5.3394203,6.8762045
2026-05-10 11:27:14.410,292,2.60045665,0.3364373075,1.8361437500000002,-3.2302555,5.351103275,6.80576435
2026-05-10 11:27:14.420,293,2.47743115,0.29227313499999996,1.7089412,-3.2434655,5.3391914,6.6887455
2026-05-10 11:27:14.430,294,2.266859833333333,0.22629368333333333,1.4884405,-3.243592666666667,5.126483066666666,6.397795566666666
2026-05-10 11:27:14.440,295,2.218544,0.21440275,1.4289858,-3.2366695,5.028032,6.29909
2026-05-10 11:27:14.450,296,2.218544,0.21440275,1.4289858,-3.2366695,5.028032,6.29909
2026-05-10 11:27:14.460,297,2.218544,0.21440275,1.4289858,-3.2366695,5.028032,6.29909
2026-05-10 11:27:14.470,298,2.218544,0.21440275,1.4289858000000002,-3.2366695,5.028032,6.29909
2026-05-10 11:27:14.480,299,2.0092635,0.237087,0.6721124,-3.4941492,4.793307,6.1239243
2026-05-10 11:27:14.490,300,2.0092635,0.23708699999999996,0.6721124,-3.9097410666666668,4.7934086,6.071084366666667
2026-05-10 11:27:14.500,301,2.0252096,0.1651468275,0.35224618750000003,-6.2838182,4.996725,5.7005944
2026-05-10 11:27:14.510,302,1.9273076,-0.040734082,0.5985105,-7.8592396,4.955797,5.267491
2026-05-10 11:27:14.520,303,1.9273076,-0.040734082,0.5985105,-7.8592396,4.955797,5.267491
2026-05-10 11:27:14.530,304,1.9273076,-0.040734082,0.5985105,-7.8592395999999995,4.955797,5.267491
2026-05-10 11:27:14.540,305,1.8679901,-0.081788309,0.67435335,-7.8592396,4.955797,5.267491
2026-05-10 11:27:14.550,306,1.72275295,-0.084700063,1.2730926,-6.787324,2.2218696,5.1076733999999995
2026-05-10 11:27:14.560,307,2.0626814,0.11311635400000002,1.3141621,-5.212055,0.6383542,5.242598
2026-05-10 11:27:14.570,308,2.5838704,0.58911973,1.1992164,-3.953978,0.019394971,4.2496367
2026-05-10 11:27:14.580,309,2.5838704,0.58911973,1.1992164,-3.953978,0.019394971,4.2496367
2026-05-10 11:27:14.590,310,2.5838704,0.58911973,1.1992164,-3.1370986,-0.40515637,3.233768
2026-05-10 11:27:14.600,311,2.657411,0.8290728,0.974752,-3.1370986,-0.40515637,3.233768
2026-05-10 11:27:14.610,312,2.256940566666666,1.0324585666666668,0.22424071666666667,-3.074281133333333,-0.5541056766666667,2.809623866666667
2026-05-10 11:27:14.620,313,2.0293257,1.0639645,-0.11476279,-3.5919640499999996,-0.6409503575,2.4428119500000003
2026-05-10 11:27:14.630,314,2.0293257,1.0639645,-0.11476279,-5.2148803,-0.133168615,2.65329325
2026-05-10 11:27:14.640,315,2.5510635,1.0628669,0.06597946,-8.457582,1.3437508,3.1693215
2026-05-10 11:27:14.650,316,2.5510635,1.0628669,0.06597946,-10.090883,2.5512786,2.6606236
2026-05-10 11:27:14.660,317,2.5510635,1.0628669,0.06597946,-10.090883,2.5512786,2.6606236
2026-05-10 11:27:14.670,318,3.462290425,1.337715175,0.92842304,-10.090883,2.5512786,2.6606236
2026-05-10 11:27:14.680,319,3.9574258,1.5200276,1.4350227,-10.090883,2.5512786,2.6606236
2026-05-10 11:27:14.690,320,3.9574258000000007,1.5200276,1.4350227,-10.090883,2.5512786,2.6606236
2026-05-10 11:27:14.700,321,3.9574258,1.5200276,1.4350227,-10.090883,2.5512786,2.6606236
2026-05-10 11:27:14.710,322,3.9574258,1.5200276,1.4350227,-10.090883,2.5512786,2.6606236
2026-05-10 11:27:14.720,323,3.9574258,1.5200276,1.4350227,-10.2152705,2.73923415,2.3009767
2026-05-10 11:27:14.730,324,3.9574258000000007,1.5200276,1.4350227,-10.256733,2.801886,2.1810944
2026-05-10 11:27:14.740,325,3.9574258,1.5200276,1.4350227,-10.256733,2.801886,2.1810944
2026-05-10 11:27:14.750,326,3.9574258,1.5200276,1.4350227,-10.256733,2.801886,2.1810944
2026-05-10 11:27:14.760,327,3.2188311,1.7887781249999999,2.58048585,-8.94825975,2.389399375,-0.44745879499999996
2026-05-10 11:27:14.770,328,2.6576550666666665,1.8577913,3.2897853999999995,-8.238179866666666,2.0391190666666668,-0.7177157566666666
2026-05-10 11:27:14.780,329,3.107772825,2.2267915,3.8560634,0.6846654749999999,0.25789967999999996,-0.37262779999999995
2026-05-10 11:27:14.790,330,3.986757,1.9249904,2.6271045,7.3893313,-1.6646078,-1.7272215
2026-05-10 11:27:14.800,331,3.986757,1.9249904,2.6271045,7.3893313,-1.6646078,-1.7272215
2026-05-10 11:27:14.810,332,3.9867569999999994,1.9249903999999998,2.6271045,7.389331299999999,-1.6646078,-1.7272215
2026-05-10 11:27:14.820,333,3.986757,1.9249904,2.6271045,7.3893313,-1.6646078,-1.7272215
2026-05-10 11:27:14.830,334,4.142757,1.82935985,2.1239349,7.680943075,-2.127681875,-2.244471525
2026-05-10 11:27:14.840,335,4.194757,1.797483,1.9562117,7.778147,-2.2820399,-2.4168882
2026-05-10 11:27:14.850,336,4.194757,1.797483,1.9562117,7.778147,-2.2820399,-2.4168882
2026-05-10 11:27:14.860,337,4.194757,1.797483,1.9562117,7.778147,-2.2820399,-2.4168882
2026-05-10 11:27:14.870,338,4.194757,1.797483,1.9562117,7.778147,-2.2820399,-2.4168882
2026-05-10 11:27:14.880,339,4.194757,1.797483,1.9562117,7.778147,-2.2820399,-2.4168882
2026-05-10 11:27:14.890,340,4.13533285,1.7772989,1.6954648,7.778147,-2.2820399,-2.4168882
2026-05-10 11:27:14.900,341,4.0759087,1.7571148,1.4347179,7.778147,-2.2820399,-2.4168882
2026-05-10 11:27:14.910,342,4.0759087,1.7571148,1.4347179,7.778147,-2.2820399,-2.4168882
2026-05-10 11:27:14.920,343,4.0759087,1.7571148,1.4347179,7.324465249999999,-2.298533225,-2.8932487499999997
2026-05-10 11:27:14.930,344,3.5114243,1.8424854,0.7252862,5.3194146,-1.5867225,-3.5979962
2026-05-10 11:27:14.940,345,3.5114243,1.8424854,0.7252862,4.23146355,-1.0323622700000001,-3.752087
2026-05-10 11:27:14.950,346,3.1588429333333337,1.9022249333333334,0.7600443666666666,2.5582527,-0.1702786766666667,-4.020816866666666
2026-05-10 11:27:14.960,347,2.97294785,1.8597275,0.945543,0.8375726,0.69020136,-4.473671749999999
2026-05-10 11:27:14.970,348,2.791748,1.7455286,1.1500671,0.2874121,0.93523467,-4.6972485
2026-05-10 11:27:14.980,349,2.7374563000000003,1.6963591000000002,1.2161075333333333,0.2874121,0.9352346700000002,-4.6972485
2026-05-10 11:27:14.990,350,2.6288729,1.5980201,1.3481884,0.2874121,0.93523467,-4.6972485
2026-05-10 11:27:15.000,351,2.0866919,1.2362612,1.821905125,0.6770296225,0.645760925,-5.509699224999999
2026-05-10 11:27:15.010,352,1.79917525,0.818538625,2.011092975,2.2877667,0.05681046750000001,-5.702007075
2026-05-10 11:27:15.020,353,1.7659365333333332,0.6659535000000001,2.0004622333333333,2.924364666666667,-0.04922555866666667,-5.787133666666667
2026-05-10 11:27:15.030,354,1.9720662,-0.22604977,1.542712,4.6027168000000005,0.6059019725,-6.38014385
2026-05-10 11:27:15.040,355,1.9720662,-0.22604977,1.542712,4.981606,0.46135598,-6.5765753
2026-05-10 11:27:15.050,356,2.0206057,-0.5185262,1.1545591666666666,5.724672766666667,-0.2744821183333333,-6.8471374
2026-05-10 11:27:15.060,357,2.0778651,-0.5626548,1.018352,5.818186,-0.39920044,-6.8847566
2026-05-10 11:27:15.070,358,2.193984725,-0.62331385,0.93113661,5.52027475,-0.83444191,-7.2694874
2026-05-10 11:27:15.080,359,2.2461219000000003,-0.698059065,0.9916127800000001,4.80120985,-1.08619475,-7.7007199250000005
2026-05-10 11:27:15.090,360,2.0836582,-0.67888105,1.2844043,4.5636215,-1.7751744,-7.837401
2026-05-10 11:27:15.100,361,2.0836582,-0.6788810499999999,1.2844043,4.5636215,-1.7751744,-7.837401
2026-05-10 11:27:15.110,362,2.182170025,-0.6906347875000001,1.420601225,4.54758625,-1.8686368,-7.854734499999999
2026-05-10 11:27:15.120,363,2.24665545,-0.7363843999999999,1.5037158000000002,4.6007314,-1.4973835,-7.9934773
2026-05-10 11:27:15.130,364,2.2783036,-0.7782161,1.5414313999999998,4.6007314,-1.4973835,-7.9934772999999995
2026-05-10 11:27:15.140,365,2.2240627,-0.8108704999999999,1.419183425,4.663039825,-1.252731925,-8.011345075
2026-05-10 11:27:15.150,366,2.2027199,-0.8129133,1.3176073499999998,4.74184165,-1.3629931000000002,-7.99851675
2026-05-10 11:27:15.160,367,2.1994574,-0.8040713,1.2567806,4.799874,-1.5548048,-7.9797325
2026-05-10 11:27:15.170,368,2.3170865,-0.737726,1.226718,4.9206724,-2.3950498,-7.996837
2026-05-10 11:27:15.180,369,2.3170865,-0.737726,1.226718,4.905502599999999,-2.9861638666666663,-8.099564333333333
2026-05-10 11:27:15.190,370,2.4170313,-0.6947966,1.2481827,4.8979177,-3.2817209,-8.150928
2026-05-10 11:27:15.200,371,2.4170313,-0.6947966,1.2481827,4.8979177,-3.2817209,-8.150928
2026-05-10 11:27:15.210,372,2.4170313,-0.6947966,1.2481827,4.8979177,-3.2817209,-8.150928
2026-05-10 11:27:15.220,373,2.4204461,-0.6977693425,1.251963375,4.8285081,-3.323985125,-8.17921875
2026-05-10 11:27:15.230,374,2.3940014,-0.7206314800000001,1.2361696666666666,4.260225133333333,-3.1125112,-8.239299666666668
2026-05-10 11:27:15.240,375,2.3206232,-0.7485193,1.1818982,3.5401168,-2.435978,-8.189717
2026-05-10 11:27:15.250,376,2.22037355,-0.76388605,1.163924675,3.3847660999999998,-2.22454225,-8.128401499999999
2026-05-10 11:27:15.260,377,2.006351825,-0.8441346025,1.1411031999999999,2.8363618,-1.4900531000000001,-7.8742819
2026-05-10 11:27:15.270,378,1.8069957,-0.92779803,1.1165895,2.5893052,-1.1895074,-7.663762600000001
2026-05-10 11:27:15.280,379,1.61256365,-0.9573424450000001,1.1191506,2.672001,-1.4764613,-7.2906002999999995
2026-05-10 11:27:15.290,380,1.4181316,-0.98688686,1.1217117,2.7546968,-1.7634152,-6.917438
2026-05-10 11:27:15.300,381,1.4181316,-0.98688686,1.1217117,2.7546968,-1.7634152,-6.917438
2026-05-10 11:27:15.310,382,1.2311693,-1.0621961,1.1587261,2.7546968,-1.7634152,-6.917438
2026-05-10 11:27:15.320,383,0.7779721966666666,-1.4818140666666668,1.05144345,3.3025411000000005,-1.7674367333333334,-6.432614633333333
2026-05-10 11:27:15.330,384,0.33617815,-1.8955374,0.94115245,3.8508945,-1.8622227,-6.0952134
2026-05-10 11:27:15.340,385,-1.54911475,-3.18921045,0.396791425,4.5003969999999995,-2.462016,-4.9696941500000005
2026-05-10 11:27:15.350,386,-2.38597765,-3.5331329,0.31218284,3.81935865,-2.057814125,-3.8939223
2026-05-10 11:27:15.360,387,-2.5414898,-3.5847213,0.31312802,3.6395351999999996,-1.9312505,-3.6248744
2026-05-10 11:27:15.370,388,-2.5414898,-3.5847213,0.31312802,3.6395352,-1.9312505,-3.6248744
2026-05-10 11:27:15.380,389,-2.5414898,-3.5847213,0.31312802,3.2782083,-1.5467108,-3.010802
2026-05-10 11:27:15.390,390,-2.7270494,-3.577038,0.3591673,2.9524644,-1.0689760000000001,-2.374318615
2026-05-10 11:27:15.400,391,-2.7270494,-3.577038,0.3591673,1.9752327,0.3642284,-0.46486846
2026-05-10 11:27:15.410,392,-2.3187125666666666,-3.3214742333333334,0.48872769999999993,1.5102115533333336,1.1717413333333333,0.47219886000000005
2026-05-10 11:27:15.420,393,-1.0833559,-2.8111396,0.5128348,0.24701863000000002,3.2834771,2.83800365
2026-05-10 11:27:15.430,394,-0.91587661,-2.7368822,0.505425825,-0.20292179999999999,3.9363775000000003,3.3787721
2026-05-10 11:27:15.440,395,-0.31875334250000004,-2.43805375,0.510807225,-0.6678666249999999,4.552854875,3.5204546249999997
2026-05-10 11:27:15.450,396,0.014695976666666666,-2.1767326666666666,0.6088566666666667,-1.0761918999999998,5.114367666666666,3.4727178999999997
2026-05-10 11:27:15.460,397,0.11348223,-2.110428,0.6393056,-1.2053899,5.349958,3.4109187
2026-05-10 11:27:15.470,398,0.10996068249999999,-1.806553575,0.672935625,-1.577254,6.278473,3.40985
2026-05-10 11:27:15.480,399,0.09713981,-1.7800429,0.6712587,-1.6933185,6.5609980000000006,3.5888332999999997
2026-05-10 11:27:15.490,400,0.09713981,-1.7800429,0.6712587,-1.6933185,6.560998,3.5888333
2026-05-10 11:27:15.500,401,0.07329695644999999,-1.737936775,0.6312258625,-1.8045723249999999,6.697335499999999,3.741205975
2026-05-10 11:27:15.510,402,0.0624121802,-1.4089694499999998,0.35165161,-2.6666941,7.3445855,4.715688625
2026-05-10 11:27:15.520,403,0.082626775,-1.3414198,0.29849303,-3.5001051333333333,7.571522000000001,5.4120623
2026-05-10 11:27:15.530,404,0.76684355625,-1.081038675,0.5282777825,-5.8617484,7.3967764250000005,6.6519024
2026-05-10 11:27:15.540,405,1.70006865,-0.596193305,1.2892825749999999,-7.4402244500000005,6.09952755,7.2930436499999995
2026-05-10 11:27:15.550,406,2.036704,-0.23440392,2.0921342,-6.9730268,4.17954,7.4563737
2026-05-10 11:27:15.560,407,2.036704,-0.23440392,2.0921342,-6.9730268,4.17954,7.4563737
2026-05-10 11:27:15.570,408,2.036704,-0.23440392,2.0921342,-6.9730268,4.17954,7.4563737
2026-05-10 11:27:15.580,409,2.036704,-0.23440392,2.0921342,-6.9730268,4.17954,7.4563737
2026-05-10 11:27:15.590,410,2.036704,-0.23440392,2.0921342,-6.837796475,4.056450675000001,7.453930275
2026-05-10 11:27:15.600,411,2.036704,-0.23440392,2.0921342,-6.4321055,3.6871826999999997,7.4466
2026-05-10 11:27:15.610,412,2.2472499249999998,0.1572195275,1.7793568499999999,-5.772714875,3.798054675,7.02590475
2026-05-10 11:27:15.620,413,2.294707,0.3017249,1.6067401,-5.552918,3.835012,6.885673
2026-05-10 11:27:15.630,414,2.294707,0.3017249,1.6067401,-5.720142275,4.031443375,6.6819115
2026-05-10 11:27:15.640,415,2.294707,0.3017249,1.6067401,-5.775883699999999,4.0969205,6.613991000000001
2026-05-10 11:27:15.650,416,2.294707,0.3017249,1.6067401,-5.7758837,4.0969205,6.613991
2026-05-10 11:27:15.660,417,2.294707,0.3017249,1.6067401,-5.8585032749999995,4.118949775000001,6.48250215
2026-05-10 11:27:15.670,418,2.06531865,0.23443440375,1.527025075,-6.106362,4.1850376,6.0880356
2026-05-10 11:27:15.680,419,1.5110637,0.051039565,1.4184364,-6.106362,4.1850376,6.0880356
2026-05-10 11:27:15.690,420,1.5110637,0.051039565,1.4184364,-6.106362,4.1850376,6.0880356
2026-05-10 11:27:15.700,421,1.5110637,0.051039565,1.4184364,-6.106362,4.1850376,6.0880356
2026-05-10 11:27:15.710,422,1.68573855,0.1152811125,1.41224705,-6.106362,4.1850376,6.0880356
2026-05-10 11:27:15.720,423,1.8604134,0.17952266,1.4060577,-6.106362,4.1850376,6.0880356
2026-05-10 11:27:15.730,424,1.8604133999999999,0.17952266000000003,1.4060577,-6.246759,4.119471533333333,5.798587466666667
2026-05-10 11:27:15.740,425,1.8604134,0.17952266,1.4060577,-6.3169575,4.0866885,5.6538634
2026-05-10 11:27:15.750,426,1.8604134,0.17952266,1.4060577,-6.3169575,4.0866885,5.6538634
2026-05-10 11:27:15.760,427,1.8604134,0.17952266,1.4060577,-6.39110135,3.91656255,5.5235199999999995
2026-05-10 11:27:15.770,428,1.8604134,0.17952266,1.4060577,-6.4652452,3.7464366,5.3931766
2026-05-10 11:27:15.780,429,1.8604133999999999,0.17952266000000003,1.4060577,-6.465245200000001,3.7464366000000004,5.3931766
2026-05-10 11:27:15.790,430,1.3956149249999998,0.004085604499999999,1.4614419,-6.4652452,3.7464366,5.3931766
2026-05-10 11:27:15.800,431,1.2406821,-0.054393414,1.4799033,-6.4652452,3.7464366,5.3931766
2026-05-10 11:27:15.810,432,1.2406821,-0.054393414,1.4799033,-6.4232481,3.52896855,5.3866861
2026-05-10 11:27:15.820,433,1.2406821,-0.054393414,1.4799033,-6.381251,3.3115005,5.3801956
2026-05-10 11:27:15.830,434,1.0642694,-0.19068186,1.4062406,-6.381251,3.3115004999999997,5.3801956
2026-05-10 11:27:15.840,435,1.0642694,-0.19068186,1.4062406,-6.059172,2.5770876,5.5223746
2026-05-10 11:27:15.850,436,1.2649671,-0.15209729500000002,1.161439675,-6.24521925,1.8754326749999999,5.4909149500000005
2026-05-10 11:27:15.860,437,1.6246984,-0.15037463499999998,1.0668305,-6.955312,1.8657352,4.8614182
2026-05-10 11:27:15.870,438,1.6891837999999997,-0.19885308,1.0353043,-7.073463433333333,1.9682078666666667,4.638401466666667
2026-05-10 11:27:15.880,439,1.09102403,-0.357322695,1.1460730000000001,-7.0826390749999995,1.412167725,3.5220963000000003
2026-05-10 11:27:15.890,440,0.89457968,-0.407508545,1.1760747500000002,-6.9190798749999995,1.026711735,3.35185585
2026-05-10 11:27:15.900,441,0.9034064,-0.39959648,1.1553113,-6.6555295,0.63132924,3.5114062
2026-05-10 11:27:15.910,442,1.0749001333333335,-0.29611483666666666,1.0392679466666666,-6.550511666666667,0.36621372,3.6290995333333336
2026-05-10 11:27:15.920,443,1.2463938666666667,-0.19263319333333334,0.9232245933333333,-6.445493833333333,0.10109820000000003,3.7467928666666666
2026-05-10 11:27:15.930,444,1.4178876,-0.08915155,0.80718124,-6.340476,-0.16401732,3.8644862
2026-05-10 11:27:15.940,445,1.4178876,-0.08915155000000001,0.8071812399999999,-6.340476,-0.16401732,3.8644862
2026-05-10 11:27:15.950,446,1.4178876,-0.08915155000000001,0.8071812399999999,-6.340476,-0.16401732,3.8644862
2026-05-10 11:27:15.960,447,2.12164815,0.15804275,0.7452568975,-7.963697249999999,-0.40809618000000003,3.7509797750000002
2026-05-10 11:27:15.970,448,2.356235,0.24044085,0.72461545,-8.952459000000001,-0.06070475,3.60349405
2026-05-10 11:27:15.980,449,3.099189975,0.3476422225,1.9386953500000002,-9.400147,0.3680463,3.4938438
2026-05-10 11:27:15.990,450,3.2225661,0.37868062,2.127685,-9.400147,0.3680463,3.4938438
2026-05-10 11:27:16.000,451,3.5034971,0.5575935,2.5767357,-8.92693,0.8451320533333333,2.6072238333333337
2026-05-10 11:27:16.010,452,3.5034971,0.5575935,2.5767357,-8.661458,0.8361218,2.3403776
2026-05-10 11:27:16.020,453,3.350180225,0.6706946149999999,2.693023,-8.420166349999999,0.702685925,2.17307685
2026-05-10 11:27:16.030,454,3.0088950000000003,0.83114606,2.8418121,-6.796487,-0.27672195,1.385137
2026-05-10 11:27:16.040,455,3.008895,0.83114606,2.8418121,-6.796487,-0.27672195,1.385137
2026-05-10 11:27:16.050,456,3.008895,0.83114606,2.8418121,-6.796487,-0.27672195,1.385137
2026-05-10 11:27:16.060,457,2.956574925,0.84631462,2.887409325,-6.796487,-0.27672195,1.385137
2026-05-10 11:27:16.070,458,2.8227258,0.9221066333333333,3.0810131666666667,-5.794515199999999,-0.46568292333333333,1.7438675666666665
2026-05-10 11:27:16.080,459,3.046046675,1.138038975,3.3898927999999997,-4.422053525,-0.541570195,2.1472295
2026-05-10 11:27:16.090,460,3.5773427,1.604118,3.9756587,-2.7727172,-0.5911648,2.4043655
2026-05-10 11:27:16.100,461,3.8810393666666667,2.0595510999999997,3.7246075666666663,0.7130834,-1.4465798333333335,1.8211420333333335
2026-05-10 11:27:16.110,462,4.26058385,2.3711749500000003,3.2357986,2.6219864,-1.8417587,1.2131784
2026-05-10 11:27:16.120,463,4.3542175,2.2153122,2.5490513,3.574478,-1.5125023,0.43890667
2026-05-10 11:27:16.130,464,4.421741833333333,1.8532179333333332,1.9747900999999999,4.875162566666667,-1.0338385,-1.4430672999999998
2026-05-10 11:27:16.140,465,4.455504,1.6721708,1.6876595,5.007873,-0.9804387,-1.8962784
2026-05-10 11:27:16.150,466,4.455504,1.6721708,1.6876595,5.007873,-0.9804387,-1.8962784
2026-05-10 11:27:16.160,467,4.455504,1.6721708,1.6876595,5.007873,-0.9804387,-1.8962784
2026-05-10 11:27:16.170,468,4.455504,1.6721708,1.6876594999999999,5.007873,-0.9804387,-1.8962784
2026-05-10 11:27:16.180,469,4.375438375,1.6261619999999999,1.55321565,4.79994985,-0.98582195,-2.1404718
2026-05-10 11:27:16.190,470,3.96203005,1.4765190499999998,1.0354872,3.9060252,-0.978224325,-3.0066023499999996
2026-05-10 11:27:16.200,471,3.7888186000000004,1.4649025,0.9210903,3.63587,-0.95447695,-3.1401527
2026-05-10 11:27:16.210,472,3.08181085,1.446334375,1.0628210999999999,1.320156165,-0.1255710075,-3.553975725
2026-05-10 11:27:16.220,473,2.72869565,1.4750404000000001,1.5744972499999998,-0.87781334,1.018465,-3.858683
2026-05-10 11:27:16.230,474,2.689547,1.4866722,1.7293081,-0.94252688,1.129947925,-3.970700425
2026-05-10 11:27:16.240,475,2.6895469999999997,1.4866722,1.7293081,-1.1366675,1.4643967,-4.3067527
2026-05-10 11:27:16.250,476,2.6770464,1.42547955,1.9854207,-1.1366675,1.4643967,-4.3067527
2026-05-10 11:27:16.260,477,2.6645458,1.3642869,2.2415333,-1.1366675,1.4643967,-4.3067527
2026-05-10 11:27:16.270,478,2.6645458,1.3642869,2.2415333,-1.1366675,1.4643967,-4.3067527
2026-05-10 11:27:16.280,479,2.4736404,1.1839104999999999,2.822908566666667,-0.15531247999999997,1.4049391666666668,-4.896441299999999
2026-05-10 11:27:16.290,480,2.3781877,1.0937223,3.1135962,0.33536503,1.3752104,-5.1912856
2026-05-10 11:27:16.300,481,2.3781877,1.0937223,3.1135962,0.33536503,1.3752104,-5.1912856
2026-05-10 11:27:16.310,482,2.3781877,1.0937223,3.1135962,0.33536503,1.3752104,-5.1912856
2026-05-10 11:27:16.320,483,2.3781877,1.0937223,3.1135962,0.33536503,1.3752104,-5.1912856
2026-05-10 11:27:16.330,484,2.0331674,0.8496228,3.3822706,2.6758952,0.6247624,-5.761681
2026-05-10 11:27:16.340,485,1.9607394,0.787881375,3.3269167,2.6758952,0.6247624,-5.761681
2026-05-10 11:27:16.350,486,1.7434554,0.6026571,3.160855,2.6758952,0.6247624,-5.761681
2026-05-10 11:27:16.360,487,1.6944586,0.516280125,3.06405065,4.840992575,0.375873025,-6.004958125
2026-05-10 11:27:16.370,488,2.245633975,-0.65366619,1.23339519,8.638168749999998,-0.50163488,-6.9185833
2026-05-10 11:27:16.380,489,2.308152925,-0.8582817899999999,0.6074287275,8.345831749999999,-0.8911760375,-7.2900658
2026-05-10 11:27:16.390,490,2.285987,-0.8761487,0.54167795,8.259509,-0.97310835,-7.3682566
2026-05-10 11:27:16.400,491,2.237279975,-0.87527975,0.5586453874999999,8.259509,-0.97310835,-7.3682566
2026-05-10 11:27:16.410,492,2.2254652249999998,-0.922630055,0.7277711,6.2441882500000006,-1.3280973500000002,-8.121568250000001
2026-05-10 11:27:16.420,493,1.7858764666666669,-0.9190170599999999,1.0259744800000001,4.884733,-1.3985250666666669,-8.035016
2026-05-10 11:27:16.430,494,1.7778475,-0.91548026,1.0493295,4.737718,-1.5589281,-7.923533
2026-05-10 11:27:16.440,495,1.9825852,-0.849287365,1.1272304,4.681824000000001,-1.7243962,-7.8242674999999995
2026-05-10 11:27:16.450,496,2.1873229,-0.78309447,1.2051313,4.6120324,-2.0040963,-7.7871575
2026-05-10 11:27:16.460,497,2.1873229,-0.78309447,1.2051313,4.6120324,-2.0040963,-7.7871575
2026-05-10 11:27:16.470,498,2.206027975,-0.7924243049999999,1.1876608,4.63196185,-2.20545255,-7.921967825
2026-05-10 11:27:16.480,499,2.212263,-0.79553425,1.1818373,4.638605,-2.2725713,-7.9669046
2026-05-10 11:27:16.490,500,2.212263,-0.7955342499999999,1.1818373,4.638605,-2.2725713,-7.9669046
2026-05-10 11:27:16.500,501,2.205479125,-0.7781856775,1.1515459,4.6069163500000005,-2.3761893499999998,-7.9697298
2026-05-10 11:27:16.510,502,2.2666261,-0.62406081,0.9395670650000001,4.337524849999999,-2.7366762,-7.974005849999999
2026-05-10 11:27:16.520,503,2.44669755,-0.455300945,0.803217615,3.91442445,-3.048751975,-8.012528525
2026-05-10 11:27:16.530,504,2.5452704,-0.38862023000000007,0.7879728,3.2055663333333335,-3.1830151333333334,-8.172409666666667
2026-05-10 11:27:16.540,505,2.5760954750000002,-0.361088135,0.9061047,2.9002354,-3.1202996,-8.269741
2026-05-10 11:27:16.550,506,2.5863705,-0.35191077,0.945482,2.9002354,-3.1202996,-8.269741
2026-05-10 11:27:16.560,507,2.410933375,-0.42363752499999996,1.186197225,2.67513155,-2.9268844,-8.390692
2026-05-10 11:27:16.570,508,2.0541441,-0.53643376,1.5689939,2.5549948333333337,-2.6805276,-8.494233666666666
2026-05-10 11:27:16.580,509,2.0541441,-0.53643376,1.5689939,2.6074784,-2.6540568,-8.485529
2026-05-10 11:27:16.590,510,1.9473088,-0.5843634,1.7787623,2.6074784,-2.6540568,-8.485529
2026-05-10 11:27:16.600,511,1.9473088,-0.5843634,1.7787622999999997,2.6074784,-2.6540568,-8.485529
2026-05-10 11:27:16.610,512,1.9473088,-0.5843634,1.7787623,3.1115566250000004,-2.871448425,-8.30272775
2026-05-10 11:27:16.620,513,2.0153613999999997,-0.6765639,1.6498829,3.9405772000000003,-3.2880967500000002,-8.169635
2026-05-10 11:27:16.630,514,2.0507903,-0.79852223,1.3832514,4.5602617,-3.6607628,-8.183151
2026-05-10 11:27:16.640,515,1.7834578,-1.0168276,0.9623732,4.907233,-4.000404,-8.330216
2026-05-10 11:27:16.650,516,1.09375278,-1.4365472000000001,0.62186557,4.738558,-3.9168678249999997,-8.072240749999999
2026-05-10 11:27:16.660,517,-0.21193309024999998,-2.231243075,0.05719845999999999,3.5124368999999995,-3.73964065,-6.539770475
2026-05-10 11:27:16.670,518,-0.8142548,-2.690096,-0.03738023,1.7068592666666669,-3.583691866666667,-5.1506121
2026-05-10 11:27:16.680,519,-1.4038319000000001,-3.04167135,0.2001031385,1.1985176,-3.2841642,-4.8371363
2026-05-10 11:27:16.690,520,-1.8373024500000001,-3.29702155,0.64537303,0.13759739999999998,-2.1284072000000003,-3.8056140000000003
2026-05-10 11:27:16.700,521,-2.0360336,-3.4443471,0.94944566,-0.9233228,-0.9726502,-2.7740917
2026-05-10 11:27:16.710,522,-2.0360336,-3.4443471,0.94944566,-1.4543683333333333,0.0473929533333333,-1.5563319
2026-05-10 11:27:16.720,523,-1.8690114,-3.4054427,1.0938443,-1.9865338,1.527774,0.4195117
2026-05-10 11:27:16.730,524,-1.74833365,-3.37242245,1.132627,-1.9865338,1.527774,0.4195117
2026-05-10 11:27:16.740,525,-1.6276559,-3.3394022,1.1714097,-2.001652725,1.6950365,0.6425538749999999
2026-05-10 11:27:16.750,526,-1.2540365,-3.231469,1.2189126,-2.0470095,2.196824,1.3116804
2026-05-10 11:27:16.760,527,-1.2540365,-3.231469,1.2189126,-2.0470095,2.196824,1.3116804
2026-05-10 11:27:16.770,528,-1.2540365,-3.231469,1.2189126,-1.9646953,3.0042353,2.179109
2026-05-10 11:27:16.780,529,-1.1861972,-3.19942445,1.207707675,-1.9646953,3.0042353,2.179109
2026-05-10 11:27:16.790,530,-0.9826793,-3.1032908,1.1740929,-1.855083175,3.46146785,2.574491525
2026-05-10 11:27:16.800,531,-0.7755534000000001,-2.9686488,1.0409144333333333,-1.6793704,4.190739166666667,3.4103079
2026-05-10 11:27:16.810,532,-0.58777821,-2.8145849,0.9279200249999999,-1.6097827,4.4791694,3.762319
2026-05-10 11:27:16.820,533,-0.279955359,-2.4292879999999997,0.872977775,-1.736155425,4.8327840250000005,4.163275825
2026-05-10 11:27:16.830,534,-0.04969802,-1.9331615,0.89419854,-1.9449949,5.464495,4.7119093
2026-05-10 11:27:16.840,535,-0.06164994,-1.89718375,0.88477725,-1.9449949,5.464495,4.7119093
2026-05-10 11:27:16.850,536,-0.07360186,-1.861206,0.87535596,-2.7122416,6.5941377,5.9165354
2026-05-10 11:27:16.860,537,-0.14244732,-1.7107705,0.8637699,-2.7122416,6.5941377,5.9165354
2026-05-10 11:27:16.870,538,0.058560333333333346,-1.6062929,0.8598266,-2.8840984000000005,6.668765133333333,6.178189266666666
2026-05-10 11:27:16.880,539,0.74707102,-1.2789313500000001,0.90706515,-4.38761595,6.8258845,7.9490365
2026-05-10 11:27:16.890,540,1.3813306,-1.06262295,1.1147602,-5.79459135,6.18317795,8.828224500000001
2026-05-10 11:27:16.900,541,1.5682013,-1.0003022,1.2142782,-6.1002529999999995,5.9913664,9.056841
2026-05-10 11:27:16.910,542,1.67543315,-0.93715829,1.255164725,-6.2087579250000005,5.872209450000001,9.10338125
2026-05-10 11:27:16.920,543,1.9971287,-0.74772656,1.3778243,-6.5342727,5.5147386,9.243002
2026-05-10 11:27:16.930,544,2.2472653,-0.5801558,1.4055698,-6.844286999999999,5.1747923,9.251401
2026-05-10 11:27:16.940,545,2.2472653,-0.5801558,1.4055698,-6.844287,5.1747923,9.251401
2026-05-10 11:27:16.950,546,2.292146,-0.5221036,1.4161192,-7.3360333,4.8597383,9.108765
2026-05-10 11:27:16.960,547,2.324282,-0.39996237,1.849864,-7.3360333,4.8597383,9.108765
2026-05-10 11:27:16.970,548,2.341844,-0.38510377333333334,1.9207217666666665,-7.604814,4.188295533333334,9.004306333333334
2026-05-10 11:27:16.980,549,2.376968,-0.35538658,2.0624373,-7.55961,3.9886446,8.966433
2026-05-10 11:27:16.990,550,2.376968,-0.35538658,2.0624373,-7.55961,3.9886446,8.966433
2026-05-10 11:27:17.000,551,2.376968,-0.35538658,2.0624373,-7.55961,3.9886446,8.966433
2026-05-10 11:27:17.010,552,2.6060464000000003,-0.19322265000000002,2.4159539,-6.1418935999999995,3.032538733333334,8.369414333333333
2026-05-10 11:27:17.020,553,2.7205856,-0.112140685,2.5927122,-5.4330354,2.5544858,8.070905
2026-05-10 11:27:17.030,554,2.6998527,0.20760357,2.2093667000000003,-3.1663817499999998,1.6922494499999998,6.524422725
2026-05-10 11:27:17.040,555,2.596432,0.30428603,1.95798,-2.883742,1.5943583,6.2951193
2026-05-10 11:27:17.050,556,2.4988043333333336,0.33294625333333333,1.8197402666666669,-2.780200333333333,1.5725708,6.1513622
2026-05-10 11:27:17.060,557,2.121328025,0.3828272325,1.317820825,-3.0548225,1.6851482249999998,5.84044425
2026-05-10 11:27:17.070,558,1.2665983,0.17019285,0.30873755,-4.499939,2.1536055,5.770233
2026-05-10 11:27:17.080,559,1.426866825,-0.1967187975,0.31288411250000003,-6.8201195,2.630194875,6.18096375
2026-05-10 11:27:17.090,560,1.8671008,-0.4317934666666667,0.6149342666666667,-8.901936000000001,2.5751024,5.8141644999999995
2026-05-10 11:27:17.100,561,1.9965798750000001,-0.46597227500000005,0.8040865625,-9.193140375,2.1786509,5.2442018
2026-05-10 11:27:17.110,562,1.885049,-0.3262537875,1.4130702,-8.7007065,0.8730792,3.5596645
2026-05-10 11:27:17.120,563,1.7097337999999997,-0.14866722,1.428437,-8.299978833333334,0.5885177733333333,3.3313027
2026-05-10 11:27:17.130,564,1.7097338,-0.14866722,1.428437,-8.099615,0.44623706,3.2171218
2026-05-10 11:27:17.140,565,1.7797785333333334,-0.30615607999999994,1.1338873,-4.178878233333334,-1.0514008266666663,-0.3536401333333332
2026-05-10 11:27:17.150,566,1.8498232666666665,-0.46364493999999995,0.8393376,-0.25814146666666726,-2.5490387133333328,-3.9244020666666666
2026-05-10 11:27:17.160,567,1.919868,-0.6211338,0.5447879,3.6625953,-4.0466766,-7.495164
2026-05-10 11:27:17.170,568,1.919868,-0.6211338,0.5447879,3.270038,-3.8342482999999996,-7.4641625000000005
2026-05-10 11:27:17.180,569,1.9795870666666666,-0.5713341333333334,0.7389455666666667,2.8774807,-3.62182,-7.433161000000001
2026-05-10 11:27:17.190,570,2.0094466,-0.5464343,0.8360244,2.8774807,-3.62182,-7.433161000000001
2026-05-10 11:27:17.200,571,2.148250375,-0.4594017875,1.1095617,2.8774807,-3.62182,-7.433161
2026-05-10 11:27:17.210,572,2.280072,-0.3521547,1.3133084,2.3388503,-3.1824553,-7.49608
2026-05-10 11:27:17.220,573,2.280072,-0.3521547,1.3133084,2.2841778,-3.0839531,-7.5670934
2026-05-10 11:27:17.230,574,2.4192264,-0.2438557,1.4719150999999997,2.2842287333333338,-3.0564133000000004,-7.677100033333333
2026-05-10 11:27:17.240,575,2.4192264,-0.2438557,1.4719151,2.2843306,-3.0013337,-7.8971133
2026-05-10 11:27:17.250,576,2.4192264,-0.2438557,1.4719151,2.2843306,-3.0013337,-7.8971133
2026-05-10 11:27:17.260,577,2.4210254,-0.23105007500000002,1.53426635,2.44911145,-3.20986785,-8.07968565
2026-05-10 11:27:17.270,578,2.2530582,-0.2212934,1.5881414000000003,2.7983737000000004,-3.4807103,-8.269283
2026-05-10 11:27:17.280,579,2.20573845,-0.21312219500000001,1.5677744,2.8215102,-3.474372525,-8.2506515
2026-05-10 11:27:17.290,580,2.1680076,-0.2065364425,1.4153722,3.021377625,-3.448601525,-8.1366485
2026-05-10 11:27:17.300,581,2.0481682,-0.44740414999999994,0.9610926000000001,3.4865134,-3.5207220000000006,-7.9792747
2026-05-10 11:27:17.310,582,2.0268865000000003,-0.46309104749999996,0.9373564624999999,3.4705545000000004,-3.5485926,-7.9642322
2026-05-10 11:27:17.320,583,1.9630414,-0.51015174,0.86614805,3.4545956,-3.5764632,-7.9491897
2026-05-10 11:27:17.330,584,0.90885381,-1.5259629666666665,0.09807482966666665,1.7988454,-2.8589002333333333,-7.280852
2026-05-10 11:27:17.340,585,0.10890878999999999,-2.21406215,-0.0031709149999999964,0.6728681,-2.3706152,-6.913009
2026-05-10 11:27:17.350,586,-0.17488825,-2.4470332,0.065674566,0.6728681,-2.3706152,-6.913009
2026-05-10 11:27:17.360,587,-0.45520949,-2.58999875,0.202664268,-0.04276055000000001,-2.1458932,-6.520299
2026-05-10 11:27:17.370,588,-1.3906909,-3.0173101,0.74864125,-0.7583892,-1.9211712,-6.127589
2026-05-10 11:27:17.380,589,-1.3906909,-3.0173101,0.74864125,-0.7583892,-1.9211712,-6.127589
2026-05-10 11:27:17.390,590,-1.575595,-3.0992661249999998,0.9580131625,-0.9078603,-1.560608025,-4.5135305
2026-05-10 11:27:17.400,591,-1.7539844333333334,-3.1611397333333335,1.3015190666666667,-0.14874569,-0.70112056,-2.261423
2026-05-10 11:27:17.410,592,-1.8123618,-3.1784172,1.4383767,0.10201450749999999,-0.455667275,-1.890093325
2026-05-10 11:27:17.420,593,-1.7843875999999999,-3.1687215,1.4237874000000001,0.8542951,0.28069258,-0.7761043
2026-05-10 11:27:17.430,594,-1.700465,-3.1396344,1.3800195,0.8542951,0.28069258,-0.7761043
2026-05-10 11:27:17.440,595,-1.7004650000000001,-3.1396344,1.3800195000000002,0.8542951,0.28069258,-0.7761043
2026-05-10 11:27:17.450,596,-1.700465,-3.1396344,1.3800195,1.163202025,0.630489295,-0.3336469675
2026-05-10 11:27:17.460,597,-0.994905595,-2.48933735,0.54962048,-0.37430768250000007,3.3543754750000003,2.5200099525
2026-05-10 11:27:17.470,598,-0.7615688400000001,-2.2225688,0.28934616,-1.1343768,4.396397,3.657861
2026-05-10 11:27:17.480,599,-0.76156884,-2.2225688,0.28934616,-1.1343768,4.396397,3.657861
2026-05-10 11:27:17.490,600,-0.7323293200000001,-2.17003515,0.29154141499999997,-1.3487141500000002,4.5514042,3.9114465000000003
2026-05-10 11:27:17.500,601,-0.7030898,-2.1175015,0.29373667,-1.5630515,4.7064114,4.165032
2026-05-10 11:27:17.510,602,-0.19287711666666665,-1.7423171333333334,0.31640056666666666,-2.9361237999999994,5.663179,5.3258286
2026-05-10 11:27:17.520,603,-0.11927526,-1.6922939,0.34001982,-2.9361237999999994,5.663179,5.3258286
2026-05-10 11:27:17.530,604,-0.11927526,-1.6922939,0.34001982,-3.205209925,5.7417515,5.406119275
2026-05-10 11:27:17.540,605,0.055613004,-1.419595,0.61899954,-5.504354,6.3384905,6.019924
2026-05-10 11:27:17.550,606,0.06244266933333333,-1.3872760666666668,0.82667426,-6.343377333333334,6.374786,6.310288666666666
2026-05-10 11:27:17.560,607,0.1402216,-1.37524795,1.4355411,-8.717887000000001,6.5296148,7.5447965
2026-05-10 11:27:17.570,608,0.3325804,-1.5330772,2.0160933,-9.41435,6.6118526,8.198575
2026-05-10 11:27:17.580,609,0.3325804,-1.5330772,2.0160933,-9.41435,6.6118526,8.198575
2026-05-10 11:27:17.590,610,0.518795535,-1.53952575,2.415323875,-9.219560375,6.60979115,9.922742125000001
2026-05-10 11:27:17.600,611,2.6691801,-1.16076895,2.001442875,-8.016575375,5.9689553,10.850035375000001
2026-05-10 11:27:17.610,612,2.7257687999999995,-1.1062231,1.837851,-7.887339,5.8540745,10.708620000000002
2026-05-10 11:27:17.620,613,3.2003696,-0.9071871,1.8719386,-8.025394,5.0778174,10.264063
2026-05-10 11:27:17.630,614,3.1875335500000004,-0.542790815,1.7487301,-7.442858425,3.1948252,8.36018725
2026-05-10 11:27:17.640,615,3.023591,-0.34306878,1.5879585,-6.968598,1.5816828,6.7615147
2026-05-10 11:27:17.650,616,2.2240932333333334,-0.17657534666666666,1.8440506333333335,-6.968598,1.5816828,6.7615147
2026-05-10 11:27:17.660,617,2.0820728,-0.166092015,1.8515866,-6.648237249999999,1.296637825,6.89999025
2026-05-10 11:27:17.670,618,1.6629019,-0.24318492,1.4479504,-6.015801,1.0187705,7.2705183
2026-05-10 11:27:17.680,619,1.6629019000000003,-0.24318492,1.4479504,-6.015801,1.0187705,7.2705183
2026-05-10 11:27:17.690,620,1.6629019,-0.24318492,1.4479504,-6.015801,1.0187705,7.2705183
2026-05-10 11:27:17.700,621,1.7271739,-0.34508112,1.3291019,-6.511518,2.0005836,8.033489
2026-05-10 11:27:17.710,622,2.1290267,-0.36935081999999997,1.3323643,-7.1964507,2.8295279,8.128631
2026-05-10 11:27:17.720,623,2.5308795,-0.39362052,1.3356267,-7.1964507,2.8295279,8.128631
2026-05-10 11:27:17.730,624,2.638782075,-0.355554275,1.35355455,-7.230468275,2.8903089250000003,7.9314361
2026-05-10 11:27:17.740,625,2.9624898,-0.24135554,1.4073381,-7.332521,3.072652,7.3398514
2026-05-10 11:27:17.750,626,2.9365127,-0.033172667,1.3961180000000002,-7.0646567,2.7959301,5.775883699999999
2026-05-10 11:27:17.760,627,2.620686375,0.44374542075,1.2284253,-6.155307425,1.62940665,4.293275475
2026-05-10 11:27:17.770,628,2.3598328,0.8182185,1.053598,-4.104251,-1.0117456,2.3516784
2026-05-10 11:27:17.780,629,2.3598328,0.8182185,1.053598,-4.104251,-1.0117456,2.3516784
2026-05-10 11:27:17.790,630,2.3598328,0.8182185,1.053598,-4.104251,-1.0117456,2.3516784
2026-05-10 11:27:17.800,631,2.09621995,0.9102360374999999,0.3319095925,-4.86294575,-1.8320611750000002,2.1033618
2026-05-10 11:27:17.810,632,2.008349,0.94090855,0.09134679,-5.115844,-2.1054997,2.0205896
2026-05-10 11:27:17.820,633,2.1305308666666667,0.8710264166666667,0.1094576,-5.115844,-2.1054997,2.0205896
2026-05-10 11:27:17.830,634,2.5357881,0.6408453000000001,0.440757415,-7.403037875,-0.595517225,1.728825015
2026-05-10 11:27:17.840,635,2.8574837,0.41331680000000004,1.7249329500000001,-10.49703225,2.17704745,0.562759605
2026-05-10 11:27:17.850,636,2.374529,0.54448295,2.9217558,-9.939032333333332,2.380134566666667,-0.039146276666666674
2026-05-10 11:27:17.860,637,2.3154401499999997,0.5889367775000001,3.034719775,-9.22372175,2.1770473,-0.163559165
2026-05-10 11:27:17.870,638,2.0681696,0.8358415,3.6661894,-8.057618,1.6769779,-0.11224649
2026-05-10 11:27:17.880,639,2.1094727333333334,1.0496344333333332,4.049626466666667,-6.167143,0.86406887,0.20189095999999998
2026-05-10 11:27:17.890,640,2.150171225,1.1924171499999998,4.27389275,-4.1344124,0.3152064525,0.58975223
2026-05-10 11:27:17.900,641,2.210312,1.3000759,4.371536,-1.4306464,-0.39064834,1.1004738
2026-05-10 11:27:17.910,642,2.79845615,1.3366023999999999,4.1833845,1.2879330999999998,-0.90064447,1.3217596999999999
2026-05-10 11:27:17.920,643,4.0030997,1.2205184333333332,3.447111666666667,4.0065126,-1.4106406,1.5430456
2026-05-10 11:27:17.930,644,4.472151,1.0557934,2.8671794,7.8089957,-1.6100881,0.4279111
2026-05-10 11:27:17.940,645,4.4878988500000006,0.973608715,2.612637125,8.143253775,-1.977752625,-0.13637567500000003
2026-05-10 11:27:17.950,646,4.423856,0.5783264,1.0463415,9.335548,-2.3747387,-0.86269444
2026-05-10 11:27:17.960,647,4.0577521999999995,0.6483762375,0.7106054575,7.8850485,-2.65756935,-1.8058703699999998
2026-05-10 11:27:17.970,648,3.1228651,1.0756877249999999,0.16211311250000002,4.355927375,-2.159714125,-2.7498481249999998
2026-05-10 11:27:17.980,649,3.0188346,1.156043,0.13525179,3.0567697000000003,-1.6310101666666668,-2.755205933333333
2026-05-10 11:27:17.990,650,3.0188346,1.156043,0.13525179,2.216448175,-1.256511575,-2.850411825
2026-05-10 11:27:18.000,651,2.81315195,1.595474275,0.7700449,0.6049093,-0.5357288,-3.1283937
2026-05-10 11:27:18.010,652,2.7668078,1.6871716999999997,0.954141,0.6049093,-0.5357288,-3.1283937
2026-05-10 11:27:18.020,653,2.2444601000000004,1.64738275,2.78205255,0.93134046,-0.8626181049999999,-4.416174
2026-05-10 11:27:18.030,654,2.0601201000000002,0.4655149525,1.3904470249999998,6.71424875,-1.024611975,-6.274922225
2026-05-10 11:27:18.040,655,1.9009036000000001,-0.061527982,0.6231461,6.6372037,-1.7519615,-6.670190299999999
2026-05-10 11:27:18.050,656,1.739293475,-0.2527129075,0.58195469,6.0346614249999995,-2.573460675,-6.80015175
2026-05-10 11:27:18.060,657,1.73020765,-0.3758450925,0.693104445,5.470985450000001,-3.306231725,-6.83489475
2026-05-10 11:27:18.070,658,1.85727295,-0.475271615,1.0233524,4.829424175,-4.1222715,-6.9753175
2026-05-10 11:27:18.080,659,1.9263318666666667,-0.6713399333333333,1.3129831,4.140495566666666,-4.208759866666667,-7.351610333333333
2026-05-10 11:27:18.090,660,1.8175907,-0.8747004375,1.5499532500000002,3.9926152999999998,-3.7310122999999997,-7.53120485
2026-05-10 11:27:18.100,661,1.7369305499999999,-0.95359224,1.68756795,4.3172903,-3.4720054,-7.6471167
2026-05-10 11:27:18.110,662,1.691867,-0.99103343,1.7712618,4.54506665,-3.7959165500000003,-7.6935424999999995
2026-05-10 11:27:18.120,663,1.7829495666666666,-1.0314219633333332,1.9820059,4.772843,-4.1198277,-7.7399683
2026-05-10 11:27:18.130,664,1.798382375,-1.068949525,2.13574965,6.098076725,-7.1168095000000005,-8.431735
2026-05-10 11:27:18.140,665,1.5733235,-0.9340789,1.9398693,6.216623,-8.431468,-8.628166
2026-05-10 11:27:18.150,666,1.5733235,-0.9340788999999999,1.9398693,5.2691708,-7.5852666,-8.324718
2026-05-10 11:27:18.160,667,1.529281325,-0.6195788375,1.55470965,4.9492683,-7.2109207,-8.2165569
2026-05-10 11:27:18.170,668,1.8946532,-0.287486285,1.2700741249999998,2.567428375,-4.2922064749999995,-7.4977219
2026-05-10 11:27:18.180,669,2.0856094,-0.26733267,1.1978748,1.6097827,-3.1797063,-7.3015194
2026-05-10 11:27:18.190,670,2.0011838,-0.277150315,1.0877159299999999,1.4242323250000002,-3.311767725,-7.340004075
2026-05-10 11:27:18.200,671,1.395889325,-0.565154905,0.44950793749999995,0.12893075999999998,-2.989727225,-6.6349508749999995
2026-05-10 11:27:18.210,672,0.7060777666666667,-1.1467742,0.41831708999999995,-0.6559165733333333,-1.5113315333333333,-6.020789499999999
2026-05-10 11:27:18.220,673,-0.010610379999999996,-1.6031728,0.6007058,-0.68573442,-0.711352575,-5.455752
2026-05-10 11:27:18.230,674,-0.59899837,-1.9279784,0.84382975,0.45356744774999996,-0.829974975,-4.400520475
2026-05-10 11:27:18.240,675,-1.0231694500000001,-2.43066025,0.5815583449999999,1.7825048,-1.1169671,-3.46452225
2026-05-10 11:27:18.250,676,-1.1368956000000001,-2.6247467333333336,0.27914230333333334,2.3199644333333334,-0.94582304,-2.6552785333333335
2026-05-10 11:27:18.260,677,-1.1705562,-2.6725948,0.19836523,2.5386033,-0.84956086,-2.2843306
2026-05-10 11:27:18.270,678,-1.1705562,-2.6725948,0.19836523,1.7796031,-0.03283401,-1.6030631
2026-05-10 11:27:18.280,679,-1.1705562,-2.6725948,0.19836522999999998,1.7796031,-0.03283401,-1.6030631
2026-05-10 11:27:18.290,680,-1.3243456,-2.7285128,0.038904708,1.7796031,-0.03283401,-1.6030631
2026-05-10 11:27:18.300,681,-1.3790133500000001,-2.73939765,0.057625309,1.7796031,-0.03283401,-1.6030631
2026-05-10 11:27:18.310,682,-1.4178267,-2.7708325,0.16933915,-0.28603765,2.375044,0.21303925
2026-05-10 11:27:18.320,683,-1.4178267,-2.7708324999999996,0.16933915,-0.6341290166666667,2.817208666666667,0.5445354833333333
2026-05-10 11:27:18.330,684,-1.314268775,-2.7287111250000002,0.171961255,-1.6046666,4.021936775,1.459013475
2026-05-10 11:27:18.340,685,-1.1012838,-2.596737,0.18714507,-1.8701639,4.3498187,1.7085901
2026-05-10 11:27:18.350,686,-1.1012838,-2.596737,0.18714507,-1.8701639,4.3498187,1.7085901
2026-05-10 11:27:18.360,687,-1.1012838,-2.596737,0.18714507,-1.8701639000000003,4.3498187,1.7085900999999997
2026-05-10 11:27:18.370,688,-1.0852310250000001,-2.4028687499999997,0.18371499000000002,-3.2140674000000002,5.6366443,3.09563605
2026-05-10 11:27:18.380,689,-0.6520096,-1.9955026333333332,0.35140262,-5.3749523,6.953224333333334,5.3601388666666665
2026-05-10 11:27:18.390,690,-0.6287697666666666,-1.9850684222222221,0.3596619133333333,-5.734158033333333,7.270806422222223,5.586328577777778
2026-05-10 11:27:18.400,691,-0.6055299333333334,-1.974634211111111,0.36792120666666667,-6.093363766666667,7.588388511111111,5.812518288888889
2026-05-10 11:27:18.410,692,-0.5822901,-1.9642,0.3761805,-6.4525695,7.9059706,6.038708
2026-05-10 11:27:18.420,693,-0.42575654500000004,-1.778122,0.257789425,-7.66460275,8.4066508,6.450355
2026-05-10 11:27:18.430,694,-0.3776236466666667,-1.7819535333333334,0.2256838933333333,-9.437868333333332,8.653720333333332,7.104973666666667
2026-05-10 11:27:18.440,695,-0.29489526,-1.908099,0.35581344,-10.560333,8.146499,7.590917
2026-05-10 11:27:18.450,696,0.129489273,-1.9848260999999998,0.8480373025,-11.312499,5.471940125,8.479268000000001
2026-05-10 11:27:18.460,697,0.61351142,-2.0082268666666665,1.2610086,-11.507581333333334,4.124358666666667,8.874192333333333
2026-05-10 11:27:18.470,698,1.626878475,-1.95692815,1.9036324500000001,-10.947850500000001,2.4735843500000003,9.14022375
2026-05-10 11:27:18.480,699,2.9757529,-1.48598615,1.9725084000000002,-9.214902,0.56092703,9.255983
2026-05-10 11:27:18.490,700,3.055971,-1.4661222,1.9197461999999998,-9.478338,1.9466748,8.607091
2026-05-10 11:27:18.500,701,3.055971,-1.4661222,1.9197462,-9.478338,1.9466748,8.607091
2026-05-10 11:27:18.510,702,3.0900278500000002,-1.34635905,1.8575474,-9.478338,1.9466748,8.607091
2026-05-10 11:27:18.520,703,3.098610725,-1.1459205000000001,1.868843875,-10.589349,3.1341205,7.0111677
2026-05-10 11:27:18.530,704,3.0901194000000003,-1.1190287,1.8933422999999998,-10.70465,3.1819970000000004,6.8277936
2026-05-10 11:27:18.540,705,2.10670825,-1.2732602750000002,2.162611,-9.74982925,1.5109369775000001,4.544761075
2026-05-10 11:27:18.550,706,1.1567747750000001,-1.3756138,2.1297126,-8.799209,0.15745051,3.7200167
2026-05-10 11:27:18.560,707,0.9077969,-1.39624,2.0274963,-8.184449149999999,-0.6259841450000001,3.9968151
2026-05-10 11:27:18.570,708,0.9077969,-1.39624,2.0274963,-7.5696893,-1.4094188,4.2736135
2026-05-10 11:27:18.580,709,1.2231201,-1.4469137,1.7822992,-5.575939875,-3.6028830750000003,6.079751025
2026-05-10 11:27:18.590,710,2.6541793,-1.179703,1.7950438,-5.3572884,-3.5850153,6.797556
2026-05-10 11:27:18.600,711,2.9261462333333337,-0.4285006,2.1115053666666665,-5.8448603666666665,-1.5854498,5.5416167666666665
2026-05-10 11:27:18.610,712,2.6234457,-0.21080498,2.201592,-5.90798315,-0.256257965,3.59730905
2026-05-10 11:27:18.620,713,2.2625557499999998,-0.1687750925,2.20575375,-5.8136047,0.22544746000000002,2.932878575
2026-05-10 11:27:18.630,714,1.7859375,-0.06402813,2.232427,-5.4119099,0.16269378333333334,2.9851457666666668
2026-05-10 11:27:18.640,715,1.071068575,0.147904965,2.290865325,-4.13739,-0.45952338,3.5185838
2026-05-10 11:27:18.650,716,2.4302028250000003,0.5152434674999999,1.13428875,-4.0756545,-0.0270307875,1.74027875
2026-05-10 11:27:18.660,717,2.8854733,0.60723054,0.7408969,-4.055076,0.11713341,1.1475104
2026-05-10 11:27:18.670,718,2.8854732999999997,0.60723054,0.7408969,-4.055076,0.11713341,1.1475104
2026-05-10 11:27:18.680,719,2.3484297,0.6340614,1.0596349,-4.3703973000000005,0.1470276225,0.9561186500000001
2026-05-10 11:27:18.690,720,2.3484297,0.6340614,1.0596349,-4.4755044,0.15699236,0.8923214
2026-05-10 11:27:18.700,721,2.4757338,0.7636014333333333,2.216796,-4.591416066666667,0.6035857633333334,1.7763451666666665
2026-05-10 11:27:18.710,722,3.0080871,1.418909,3.44134405,-2.6568057575,0.8907178625,2.5135959
2026-05-10 11:27:18.720,723,4.160689966666666,2.2091126333333335,3.8053032666666664,0.28924468000000003,0.13418672333333334,2.9073621666666667
2026-05-10 11:27:18.730,724,5.207803999999999,1.14329838,2.9494708999999997,3.2873713,1.088103725,-1.7570011499999998
2026-05-10 11:27:18.740,725,4.33670125,0.7333049700000001,2.58975475,4.15239465,1.00410975,-2.3152174
2026-05-10 11:27:18.750,726,3.816198,0.42191487999999994,1.5756407,4.320751633333334,0.22948170333333331,-2.4589361333333333
2026-05-10 11:27:18.760,727,3.754228,0.4383944975,1.568368925,3.8792233250000003,-0.092889695,-2.93429115
2026-05-10 11:27:18.770,728,2.941086,0.6948576,1.5943004,2.857551125,0.014660766249999999,-3.89010435
2026-05-10 11:27:18.780,729,2.6678996,0.87901473,1.7173562,2.31006325,0.42462771250000003,-4.2607085
2026-05-10 11:27:18.790,730,2.6678996,0.8790147300000001,1.7173562,1.9738584,0.7666359000000001,-4.454429
2026-05-10 11:27:18.800,731,2.257570775,0.95246412,2.217644525,3.138702,0.59036309,-5.2820754
2026-05-10 11:27:18.810,732,2.1207945,0.97694725,2.3844073,4.3487496,0.22617286,-5.839872
2026-05-10 11:27:18.820,733,1.9274905,0.9191593533333333,2.214865,4.3487496,0.22617286,-5.839872
2026-05-10 11:27:18.830,734,1.7274787,0.85261077,1.9896284,4.9593096,-0.14614952,-5.8681245
2026-05-10 11:27:18.840,735,1.896055825,0.525838615,1.9087088749999999,5.270965425,-0.33651038,-5.83399215
2026-05-10 11:27:18.850,736,1.9508456,0.4700274199999999,1.9159654,5.641187833333333,-0.6145813533333333,-5.8138589
2026-05-10 11:27:18.860,737,1.9508456,0.47002742,1.9159654,5.7743564,-0.72189003,-5.809481
2026-05-10 11:27:18.870,738,2.1057733,0.35339459999999995,1.9768023333333333,5.774356399999999,-0.72189003,-5.809481000000001
2026-05-10 11:27:18.880,739,2.45319185,-0.03568805499999998,2.033335175,6.9526391,-1.6546812075,-6.3625050000000005
2026-05-10 11:27:18.890,740,2.4576281,-0.735225805,1.4261808249999999,8.30100975,-2.59132855,-7.813233325000001
2026-05-10 11:27:18.900,741,2.297878,-0.8883444866666667,0.9730852466666665,7.631793999999999,-2.7929777333333337,-8.369159
2026-05-10 11:27:18.910,742,2.121358575,-0.868053695,0.842183305,7.01933775,-2.9072604,-8.451702375
2026-05-10 11:27:18.920,743,2.0637789,-0.7768136,1.0357312,5.42543775,-3.2238414,-8.3168925
2026-05-10 11:27:18.930,744,2.09652475,-0.7515682,1.1096989000000002,5.02047235,-3.32157985,-8.2638615
2026-05-10 11:27:18.940,745,2.1292706,-0.7263228,1.1836666,4.8698177,-3.3654093999999994,-8.248055
2026-05-10 11:27:18.950,746,2.3710225,-0.6150663350000001,1.3901421,4.5665996,-3.4538322,-8.2617235
2026-05-10 11:27:18.960,747,3.1396954,-0.387583585,1.7175697,4.2633815,-3.542255,-8.275392
2026-05-10 11:27:18.970,748,3.6666164,-0.2713573,1.8385217999999999,3.315013,-2.4750733,-9.077457
2026-05-10 11:27:18.980,749,3.2574462,-0.3460415225,2.1868653,2.61175435,-0.94577212,-9.83764125
2026-05-10 11:27:18.990,750,2.68695565,-0.466033265,2.98746075,3.287295,-0.67737318,-9.8645575
2026-05-10 11:27:19.000,751,2.926618875,-0.680314075,3.268895,6.09486975,-2.048422075,-9.619218499999999
2026-05-10 11:27:19.010,752,3.0570686,-0.8251701149999999,2.96313025,7.10589,-2.3316727,-9.863183
2026-05-10 11:27:19.020,753,3.0770698,-0.91798043,2.6678996,7.10589,-2.3316727,-9.863183
2026-05-10 11:27:19.030,754,2.9933148999999997,-0.9552691849999999,2.2699495,7.296251,-2.3613759500000002,-9.9518345
2026-05-10 11:27:19.040,755,2.782601375,-1.014479955,1.5938124624999999,7.2260015,-2.409214275,-10.055681499999999
2026-05-10 11:27:19.050,756,2.0858941,-1.1809835333333334,0.62302415,5.806223333333333,-2.5651249000000003,-9.924218666666667
2026-05-10 11:27:19.060,757,1.695647675,-1.3044359,0.5464952949999999,5.0081787,-2.7068965,-9.563248
2026-05-10 11:27:19.070,758,1.6182041,-1.3287971,0.54369026,5.0081787,-2.7068965,-9.563248
2026-05-10 11:27:19.080,759,1.6182041,-1.3287971,0.54369026,5.0081787,-2.7068965000000005,-9.563248
2026-05-10 11:27:19.090,760,0.5213718510425001,-2.0295239499999997,0.32733617125,3.581235775,-2.2632175,-8.1551656
2026-05-10 11:27:19.100,761,-0.5618011,-2.6632042,0.31471348,2.2434027,-1.6039795,-6.861086
2026-05-10 11:27:19.110,762,-0.5618011,-2.6632042,0.31471348,1.8490891666666667,-1.1965323399999999,-6.077141999999999
2026-05-10 11:27:19.120,763,-0.939932875,-2.96592005,0.4128289725,1.6826665,-0.7424303475,-4.211419375
2026-05-10 11:27:19.130,764,-0.98508795,-3.25464105,0.32629953,1.885741,-0.69806623,-2.7919595
2026-05-10 11:27:19.140,765,-0.9131021,-3.3317187,0.24141651,1.99283335,-0.7726300075,-2.27081525
2026-05-10 11:27:19.150,766,-0.9131021,-3.3317187,0.24141651,2.0285308,-0.7974846000000001,-2.0971005
2026-05-10 11:27:19.160,767,-0.6927233500000001,-3.4488597,0.014391070000000006,1.8744399999999999,-0.84520845,-1.5232689
2026-05-10 11:27:19.170,768,-0.4723446,-3.5660007,-0.21263437,1.7203492,-0.8929323,-0.9494373
2026-05-10 11:27:19.180,769,-0.17647369999999998,-3.5788470333333335,-0.4088246566666667,-0.5751296,0.32620203,-0.321926
2026-05-10 11:27:19.190,770,-0.02853825,-3.5852702,-0.5069198,-1.9242256,1.372767,-0.30390546
2026-05-10 11:27:19.200,771,-0.16296682499999998,-3.5648421,-0.29904182500000004,-1.9242256,1.372767,-0.30390546
2026-05-10 11:27:19.210,772,-0.70272395,-3.6037772500000003,0.26489352499999996,-2.47446245,2.53226555,-0.026954429999999988
2026-05-10 11:27:19.220,773,-1.1080525,-3.6631404999999995,0.6209509,-2.492483,3.1337388,0.22021692
2026-05-10 11:27:19.230,774,-1.1080525,-3.6631405,0.6209509,-2.492483,3.1337388,0.22021692
2026-05-10 11:27:19.240,775,-1.1084589666666667,-3.346760366666667,0.5864569666666667,-1.5968526666666667,2.3398175333333335,1.27711564
2026-05-10 11:27:19.250,776,-1.0505491,-3.2791548,0.5730822,-1.062600075,1.899561825,2.08461585
2026-05-10 11:27:19.260,777,-0.3318943725,-2.703572375,0.557212425,-0.968221425,2.301587475,3.2982523500000003
2026-05-10 11:27:19.270,778,-0.18444166333333334,-2.2576115,0.5042977466666667,-1.97452,4.206163566666667,4.0786964333333335
2026-05-10 11:27:19.280,779,-0.3621400525,-2.0101478999999998,0.49412943000000004,-2.7454956,4.84859005,4.658000175
2026-05-10 11:27:19.290,780,-0.49420566,-1.8016904999999999,0.53250055,-3.3678527999999996,5.0752211,5.243438
2026-05-10 11:27:19.300,781,-0.39569381,-1.6055611333333333,0.5469221466666667,-4.484209,5.4075317,6.2664084
2026-05-10 11:27:19.310,782,0.11659217250000001,-1.5074049999999999,0.68203675,-6.800953525000001,5.88664115,7.705798349999999
2026-05-10 11:27:19.320,783,0.316283705,-1.475558625,0.7357289124999999,-8.169711425000001,5.970520575,8.428757
2026-05-10 11:27:19.330,784,1.3535546,-1.4308761,1.2692204,-10.603704,5.2097645,8.741787
2026-05-10 11:27:19.340,785,1.6736038249999998,-1.282513875,2.11837055,-10.849615499999999,4.177096625,8.55257175
2026-05-10 11:27:19.350,786,1.7802869,-1.2330598,2.4014206,-10.517496,3.0568461,8.4517025
2026-05-10 11:27:19.360,787,1.867410875,-1.1161626999999998,3.017737,-10.103406,2.2808182,8.413905
2026-05-10 11:27:19.370,788,2.2522047,-0.91962683,3.6135035,-8.781646,1.3852897000000002,8.366869
2026-05-10 11:27:19.380,789,2.6057618,-0.677570015,3.5498412000000004,-7.5833575,1.0881037249999999,7.918341
2026-05-10 11:27:19.390,790,2.612149225,0.13811781,2.479169,-4.524526,1.0899363,5.514281
2026-05-10 11:27:19.400,791,2.4636192,0.25294158,2.215373,-4.605669333333333,1.1644109666666667,5.397147466666667
2026-05-10 11:27:19.410,792,2.1207639,0.26946694,1.91437995,-4.767956,1.3133603,5.1628804
2026-05-10 11:27:19.420,793,1.0798191,0.042868353000000005,1.26845815,-5.46273865,1.48096645,5.267643675
2026-05-10 11:27:19.430,794,0.8260848,-0.084883004,1.1845813,-6.0736804,1.4110987,5.6282067
2026-05-10 11:27:19.440,795,0.8260848,-0.084883004,1.1845813,-6.0736804,1.4110987,5.6282067
2026-05-10 11:27:19.450,796,1.0134128,-0.30392018,1.1450363499999998,-6.4644814,1.3238977,6.049551
2026-05-10 11:27:19.460,797,1.2782453,-0.43508637,1.1250657,-6.9146892,1.3338242500000002,6.40721275
2026-05-10 11:27:19.470,798,2.300622,-0.29404154,1.2643421,-7.785172,1.3643675,6.477615
2026-05-10 11:27:19.480,799,2.2935789250000003,-0.27286653,1.40714005,-7.812202825,1.35348645,6.20646725
2026-05-10 11:27:19.490,800,1.96035825,-0.12201932500000001,2.05265025,-6.824204675,0.04990004749999996,3.9249238
2026-05-10 11:27:19.500,801,1.4644553,0.0017887199999999982,2.335502066666667,-5.308266233333334,-1.4652620866666668,3.3316081333333334
2026-05-10 11:27:19.510,802,1.0968323,0.07476046,2.466973,-3.429435675,-2.660470825,3.7449093749999998
2026-05-10 11:27:19.520,803,1.3488897,0.30077973,2.18988375,-1.46248775,-2.7407232500000003,4.487110599999999
2026-05-10 11:27:19.530,804,1.6009471,0.526799,1.9127944999999997,-0.9647089000000001,-2.5474608,4.6809077
2026-05-10 11:27:19.540,805,2.37007735,1.0342982,0.8010833500000001,-1.1520155,-0.958065735,4.4863472
2026-05-10 11:27:19.550,806,2.4239828,1.43694355,0.27974192,-3.6248744,1.6473509,3.420998
2026-05-10 11:27:19.560,807,2.6079264,1.6535872999999999,0.6122308225,-5.30513555,0.9800569174999999,3.05035565
2026-05-10 11:27:19.570,808,2.8296366,1.6588366666666667,0.6021286066666667,-7.0197577,1.6333009,3.233768
2026-05-10 11:27:19.580,809,3.0769326,1.65727655,0.96488858,-7.104515275000001,1.7426457750000002,3.268930925
2026-05-10 11:27:19.590,810,3.5657873999999996,1.790409275,2.105732675,-7.358788,2.0706804,3.3744197
2026-05-10 11:27:19.600,811,3.6645431999999993,1.8207769,2.2852554,-6.898043,2.1896465,3.3269248
2026-05-10 11:27:19.610,812,4.0471873,2.0149348,3.0618858,-5.80161635,1.9376646,3.0083586
2026-05-10 11:27:19.620,813,4.198538,2.1168308,3.2102482,-4.7051897,1.6856827,2.6897924
2026-05-10 11:27:19.630,814,3.993180066666666,2.281494866666667,2.3517226,0.19817483333333344,-0.38947748000000004,1.0913616466666667
2026-05-10 11:27:19.640,815,2.931644633333333,1.0465346183333333,1.50353285,1.6674075666666668,-0.8040004900000001,-3.1531846766666662
2026-05-10 11:27:19.650,816,1.8701092,-0.18842563,0.6553431,3.1366403,-1.2185235,-7.397731
2026-05-10 11:27:19.660,817,1.8701092,-0.18842563,0.6553431,3.1366403,-1.2185235,-7.397731
2026-05-10 11:27:19.670,818,1.9555814666666667,-0.21456537333333334,1.2007205,3.1366403,-1.2185235,-7.397731
2026-05-10 11:27:19.680,819,2.0627422,-0.207817,1.5835071,3.2360586,-1.44797975,-7.4985238
2026-05-10 11:27:19.690,820,2.25180825,-0.2779887925,2.2200688,3.711311675,-1.99195525,-7.7289727
2026-05-10 11:27:19.700,821,2.350686,-0.37691224,2.4410572,4.838816,-2.935513,-8.117941
2026-05-10 11:27:19.710,822,2.297374875,-0.449401235,2.3037167,6.08666135,-3.698139975,-8.6725305
2026-05-10 11:27:19.720,823,2.1268315,-0.49716315,1.5581397,5.8737745,-3.3551774,-8.853423
2026-05-10 11:27:19.730,824,2.172504875,-0.3712106725,1.5167958,4.502840325,-2.722397325,-8.71849775
2026-05-10 11:27:19.740,825,1.9860915,-0.2706865,1.8293749,2.0619757,-1.8503108,-8.538674
2026-05-10 11:27:19.750,826,1.9860915,-0.2706865,1.8293749000000001,1.969735,-1.9949331,-8.3958845
2026-05-10 11:27:19.760,827,1.9475679750000001,-0.323860345,1.883875225,2.4428501000000002,-2.010548425,-8.052311025
2026-05-10 11:27:19.770,828,1.9893234,-0.4730764,1.522162,3.2471305,-2.1348977749999998,-8.022188
2026-05-10 11:27:19.780,829,1.5757423333333334,-1.0946777,0.7775047233333333,3.7204748000000003,-2.7397815333333333,-8.400313333333333
2026-05-10 11:27:19.790,830,0.459157885,-2.12173955,-0.0854013275,3.7209329,-3.3313536,-8.6074735
2026-05-10 11:27:19.800,831,0.07922718499999999,-2.3332306000000003,-0.22842795999999999,3.3167311,-3.463262275,-8.27852225
2026-05-10 11:27:19.810,832,-1.0032902,-2.774857,-0.5777776,2.371607975,-2.582509125,-6.9745156999999995
2026-05-10 11:27:19.820,833,-1.2212907,-2.9193775999999994,-0.39551088,0.79275036,-0.5131268,-4.0543127
2026-05-10 11:27:19.830,834,-1.0343896424999999,-2.9082030249999997,-0.34008082,0.018784108500000007,0.9253081249999999,-1.0674488
2026-05-10 11:27:19.840,835,-0.2252113175,-2.75852985,-0.4366413375,-1.1911872675,2.159446725,1.2294426625
2026-05-10 11:27:19.850,836,-0.1516552,-2.7668687999999997,-0.43661084999999994,-1.3654366,2.2742512,1.314582
2026-05-10 11:27:19.860,837,-0.06942478525,-2.7599172000000003,-0.3873091875,-1.3654366,2.2742512,1.314582
2026-05-10 11:27:19.870,838,-0.20226789999999997,-2.3832488,0.08372439999999999,-2.6599108333333334,3.0288734666666666,2.1157317333333334
2026-05-10 11:27:19.880,839,-0.186245625,-2.331294525,0.16060389,-2.91772135,3.1564934499999997,2.42754025
2026-05-10 11:27:19.890,840,-0.3714851,-2.0686878,0.71315138,-3.90354335,4.0469823,3.516140375
2026-05-10 11:27:19.900,841,-0.6047914,-1.9619439000000003,1.0350604,-4.082717866666667,4.607807666666667,4.714810666666667
2026-05-10 11:27:19.910,842,-0.9184072249999999,-1.8527605,0.83498777,-4.4347671,4.493028600000001,5.944329575
2026-05-10 11:27:19.920,843,-0.7653495,-1.6875374,0.32532385,-5.307197,4.1836634,7.5848083
2026-05-10 11:27:19.930,844,-0.7653495,-1.6875374,0.32532385,-5.307197,4.1836634,7.5848083
2026-05-10 11:27:19.940,845,-0.4762777625,-1.6892448500000001,0.294209235,-7.095848725,3.5587099749999997,9.14224725
2026-05-10 11:27:19.950,846,0.9202214125,-1.6578254,0.3152013225,-8.072737,3.2443054,9.757656
2026-05-10 11:27:19.960,847,1.3863309,-1.6024411,0.526921,-10.8294195,2.4097870500000003,10.612486
2026-05-10 11:27:19.970,848,1.8376377000000002,-1.6582522499999999,1.2168544749999999,-11.82661875,2.03975535,10.722670749999999
2026-05-10 11:27:19.980,849,2.2427528999999997,-1.7637207333333336,2.7291836000000003,-11.821108,1.6734144333333332,10.082483666666667
2026-05-10 11:27:19.990,850,2.713939,-1.5217961,2.6278362,-11.23037575,1.83125945,9.85466925
2026-05-10 11:27:20.000,851,2.6851567000000003,-0.90073852,2.2651168000000004,-8.740527,0.955087775,7.144909225
2026-05-10 11:27:20.010,852,2.3715408,-0.7011384399999999,2.1530523,-7.101919,-0.7893906,4.9712214
2026-05-10 11:27:20.020,853,2.3715408,-0.70113844,2.1530523,-7.101919,-0.7893906,4.9712214
2026-05-10 11:27:20.030,854,2.2149768,-0.684140505,2.119361375,-7.101919,-0.7893906,4.9712214
2026-05-10 11:27:20.040,855,1.6203181333333336,-0.6496110666666667,1.9672896666666666,-6.5303528,-1.5363261000000001,4.9215377
2026-05-10 11:27:20.050,856,1.3703848,-0.6825398,1.8652918,-5.3872204,-3.0301971,4.8221703
2026-05-10 11:27:20.060,857,1.31246985,-0.69385144,1.8000288500000001,-5.3872204,-3.0301971,4.8221703
2026-05-10 11:27:20.070,858,1.138725,-0.72778636,1.60424,-5.203961,-2.7695103,5.3067393
2026-05-10 11:27:20.080,859,1.9046080600000002,-0.77134074,1.28804775,-6.622619075,-0.926911635,6.775984575000001
2026-05-10 11:27:20.090,860,2.8256526,-0.7783381,1.1897036,-8.444028249999999,0.9676105075000001,7.4472492
2026-05-10 11:27:20.100,861,3.1350609333333335,-0.7150010733333333,1.3213779333333333,-9.099754,1.6653714,5.8824797
2026-05-10 11:27:20.110,862,3.2897651,-0.68333256,1.3872151,-9.036682,1.6142496,5.415931375
2026-05-10 11:27:20.120,863,1.9704808,-0.40612125,2.0587785,-7.350694,0.06994407,2.25562
2026-05-10 11:27:20.130,864,1.9704808,-0.40612125,2.0587785,-7.350694,0.06994407,2.25562
2026-05-10 11:27:20.140,865,1.4525847666666667,-0.2886144,1.8197606333333332,-6.654816666666666,-0.58902682,2.2606596
2026-05-10 11:27:20.150,866,1.1144553,-0.17220518,1.4172169,-3.965279,-3.4631479,2.8658743
2026-05-10 11:27:20.160,867,2.04940305,0.1037103175,0.76147735,-3.7948475,-4.186679725,3.633273775
2026-05-10 11:27:20.170,868,2.3610523,0.19568215,0.5428975,-3.738037,-4.427857,3.8890736
2026-05-10 11:27:20.180,869,2.3610523,0.19568215,0.5428975,-4.280791,-4.29255,4.345848
2026-05-10 11:27:20.190,870,3.934985575,0.3842297475,0.7760666,-6.317110175,-2.567619375,3.53935325
2026-05-10 11:27:20.200,871,4.759973,0.77315485,2.122685,-6.7551007,-1.6956092,0.91797775
2026-05-10 11:27:20.210,872,4.759973,0.77315485,2.122685,-6.7551007,-1.6956092,0.91797775
2026-05-10 11:27:20.220,873,3.3147208,1.259204625,2.9732832,-1.740126,-3.409468,-0.031459555
2026-05-10 11:27:20.230,874,3.86767985,2.3452588,2.258851375,0.8579984,-3.422907,0.7341836775
2026-05-10 11:27:20.240,875,4.721373,3.000358,1.4031307,2.058845025,-0.6862689125,-0.07513644000000001
2026-05-10 11:27:20.250,876,4.968948466666666,2.9637298,1.5559038333333335,2.02792,-0.41141775,-0.36147952
2026-05-10 11:27:20.260,877,5.09247705,2.899483175,1.6479925500000001,2.1221841,-0.42985824250000004,-0.562759615
2026-05-10 11:27:20.270,878,5.0916996,2.7616856,1.695099,2.4049764,-0.48517972,-1.1665999
2026-05-10 11:27:20.280,879,4.692997466666667,2.465428466666667,1.563201033333333,3.0531552666666664,-1.0115419466666669,-2.151823766666667
2026-05-10 11:27:20.290,880,3.69869145,1.8733867750000002,1.19467336,4.349513,-2.0642664,-4.1222715
2026-05-10 11:27:20.300,881,2.9301252,1.907321725,0.86890741,2.581516475,-0.855554955,-4.267848375
2026-05-10 11:27:20.310,882,2.8708382,1.9181608,0.8650505,0.6611089,1.0706941,-4.2545238
2026-05-10 11:27:20.320,883,2.6866201,1.8904151,1.31998555,0.5229006425,1.299539475,-4.28800685
2026-05-10 11:27:20.330,884,2.65478895,1.836189375,1.696897775,0.281150735,2.0073795,-4.48512535
2026-05-10 11:27:20.340,885,2.540046633333333,1.4255912666666666,2.4505697666666664,3.0827822,1.1365147733333332,-5.491678566666667
2026-05-10 11:27:20.350,886,2.1853713,0.514420255,1.33132765,6.3887339999999995,0.667141215,-6.72463375
2026-05-10 11:27:20.360,887,2.180554,0.39740124,1.1157968,7.012122,0.8098546,-7.0231175
2026-05-10 11:27:20.370,888,2.159516,0.1733028,0.77382565,7.04052725,0.8122217,-7.1452906
2026-05-10 11:27:20.380,889,2.159516,0.1733028,0.77382565,7.0689325,0.8145888,-7.2674637
2026-05-10 11:27:20.390,890,2.118339975,0.037502190250000005,0.567228225,7.003646499999999,0.71906475,-7.340652975
2026-05-10 11:27:20.400,891,2.04761945,-0.181717915,0.18187036,6.306878375,-0.07937430575000001,-7.4621389
2026-05-10 11:27:20.410,892,2.0508513,-0.19488941,0.15507002,5.711233833333334,-0.7197011066666666,-7.5678568
2026-05-10 11:27:20.420,893,2.0304691999999998,-0.306953895,0.22768096,5.071327,-1.18763665,-7.670558450000001
2026-05-10 11:27:20.430,894,2.116434425,-0.373283985,0.524100695,4.01907345,-1.48329535,-7.74412975
2026-05-10 11:27:20.440,895,2.2411063,-0.4198416,0.8533425,3.0085113,-1.6160439999999998,-7.87894
2026-05-10 11:27:20.450,896,2.2630284,-0.44478207000000003,1.10046055,2.904091525,-1.556522825,-7.898907575
2026-05-10 11:27:20.460,897,2.2849505,-0.46972254,1.3475786,2.5908322,-1.3779593,-7.9588103
2026-05-10 11:27:20.470,898,2.1840298666666667,-0.5074076666666667,1.8131545333333332,3.4307718,-1.7229455,-7.977289
2026-05-10 11:27:20.480,899,2.1622603,-0.5073467,1.8757192,3.6293031,-1.9462929999999998,-7.9579705
2026-05-10 11:27:20.490,900,2.3380937499999996,-0.49153785000000005,1.85016895,3.961995675,-2.347555,-8.037765
2026-05-10 11:27:20.500,901,2.813731325,-0.47472282499999996,1.789418525,4.3992989,-3.00492235,-8.524472
2026-05-10 11:27:20.510,902,2.658143,-0.5665574,1.8371195,4.4341183,-3.1285462,-8.71384
2026-05-10 11:27:20.520,903,2.3810688,-0.66291975,1.820776925,4.322902575,-3.327306675,-8.98662975
2026-05-10 11:27:20.530,904,2.2440333,-0.6843082,1.7927874,4.2702537,-3.3466253,-8.920771
2026-05-10 11:27:20.540,905,2.0743282,-0.690833,1.5170397,4.0137919,-3.1497230999999997,-8.683042333333333
2026-05-10 11:27:20.550,906,2.0669802500000003,-0.6432997,1.4207231,3.4428365,-2.665205,-8.245612
2026-05-10 11:27:20.560,907,2.0539613,-0.56174005,1.23513305,3.4428365,-2.665205,-8.245612
2026-05-10 11:27:20.570,908,2.0482903,-0.5277137,1.1458596,2.7895162,-2.058616,-7.932849
2026-05-10 11:27:20.580,909,2.04987565,-0.48734551,1.0817095,2.4737751,-1.7272979,-7.81716635
2026-05-10 11:27:20.590,910,1.8798809749999998,-0.4900590775,0.9293682425,1.7417295,-0.819323,-7.602218
2026-05-10 11:27:20.600,911,1.1848455666666666,-0.9610723666666666,0.6101169233333333,1.4312572666666667,-0.38143444000000004,-6.809060233333334
2026-05-10 11:27:20.610,912,0.8873688,-1.3135827,0.47533262,1.534722525,-0.5983806875,-6.522093475
2026-05-10 11:27:20.620,913,0.7577881,-1.4957579,0.42831767,1.601039625,-0.2531654675,-5.98571575
2026-05-10 11:27:20.630,914,0.7577881,-1.4957579,0.42831767,1.617113,-0.1375974,-5.895155
2026-05-10 11:27:20.640,915,0.46368557,-1.9752371,0.47551554,1.617113,-0.1375974,-5.895155
2026-05-10 11:27:20.650,916,-0.01954383250000001,-2.561734775,0.49133966250000005,2.120695075,0.195018725,-5.504926625
2026-05-10 11:27:20.660,917,-0.67040495,-3.166953,0.638665335,3.7612501499999995,-0.28389962999999996,-4.405102
2026-05-10 11:27:20.670,918,-1.2602361999999998,-3.664726,0.7420961466666666,5.105001,-0.8950703,-3.530954
2026-05-10 11:27:20.680,919,-1.48258655,-3.89992275,0.5747895975,5.105001,-0.8950703,-3.530954
2026-05-10 11:27:20.690,920,-1.5462029750000001,-4.0439098,0.366027435,5.5910205,0.52671856125,-0.56001071
2026-05-10 11:27:20.700,921,-1.2172052,-3.7641222000000005,-0.26922303,3.345047166666667,3.4939965333333336,1.7922276666666666
2026-05-10 11:27:20.710,922,-1.2172052,-3.7641222,-0.26922303,2.856864,3.9212968,2.1755965
2026-05-10 11:27:20.720,923,-0.867825065,-3.5437891,-0.3121371075,0.970359435,4.92552095,3.0920088750000003
2026-05-10 11:27:20.730,924,-0.22989148,-2.5683815,0.4531362,-3.2782465750000003,7.29796865,4.130403675
2026-05-10 11:27:20.740,925,-0.19769446999999998,-2.332941,0.62381685,-4.565454,8.168796,4.2713227
2026-05-10 11:27:20.750,926,-0.382171685,-2.025270575,0.5694996925,-5.1666981,8.42765,4.365205025
2026-05-10 11:27:20.760,927,-0.53240913,-1.8637673,0.500578,-6.9704304,9.204212,4.646852
2026-05-10 11:27:20.770,928,-0.6313376533333334,-1.8493152666666666,0.4391923,-6.970430400000001,9.204212,4.646852
2026-05-10 11:27:20.780,929,-0.8291947,-1.8204112,0.3164209,-8.64863,8.770345,5.625611
2026-05-10 11:27:20.790,930,-0.35300838749999996,-1.8489341499999998,0.78903995,-9.8172155,7.934910500000001,6.5509955
2026-05-10 11:27:20.800,931,1.3139791,-1.5730796,2.1859202,-11.873387,4.7853656,8.431162
2026-05-10 11:27:20.810,932,2.365229475,-1.132185,2.7712745500000002,-11.16707425,3.5844427000000003,7.32671775
2026-05-10 11:27:20.820,933,2.8224816,-0.8646846,3.012249,-10.938458,3.6004398,6.373157
2026-05-10 11:27:20.830,934,1.8280336,-0.69010127,3.448921,-10.938458,3.6004398,6.373157
2026-05-10 11:27:20.840,935,1.6316806,-0.7235584700000001,3.4940860666666667,-10.512787333333334,3.6279286,6.132374333333334
2026-05-10 11:27:20.850,936,1.4548105,-0.755623335,3.4771236500000002,-9.535912249999999,3.14503965,6.0647465
2026-05-10 11:27:20.860,937,1.5442059750000001,-0.697068085,3.1584008,-7.5645354000000005,1.7491744575000001,5.95009475
2026-05-10 11:27:20.870,938,1.8713286,-0.39002275,2.3139763,-5.9841886,0.55741453,5.669746
2026-05-10 11:27:20.880,939,2.07347465,-0.582686425,1.6577491500000001,2.0051651999999995,-0.5211443849999999,-0.52251885
2026-05-10 11:27:20.890,940,2.2756207,-0.7753501,1.001522,9.994519,-1.5997033,-6.7147837
2026-05-10 11:27:20.900,941,2.2756207,-0.7753501000000002,1.001522,9.994519,-1.5997033,-6.714783700000001
2026-05-10 11:27:20.910,942,2.2756207,-0.7753501,1.001522,9.299507,-1.3139712,-7.443393
2026-05-10 11:27:20.920,943,2.1784198,-0.7793747,0.84291506,9.034900666666667,-1.1769846533333332,-7.487884333333334
2026-05-10 11:27:20.930,944,1.98404875,-0.80269925,1.00819904,7.698773125,-0.684016345,-7.5683912499999995
2026-05-10 11:27:20.940,945,1.8931592666666666,-0.8412076333333333,1.2533048333333332,6.4313422000000005,-1.5309301333333334,-7.199250566666667
2026-05-10 11:27:20.950,946,2.28812135,-0.8824295499999999,1.639303,6.231742000000001,-2.1674263000000002,-7.0325098
2026-05-10 11:27:20.960,947,2.696133,-0.9082847,1.9302956,6.228993,-2.3744333,-7.0064716
2026-05-10 11:27:20.970,948,2.696133,-0.9082847,1.9302956,6.5700083000000005,-3.6607628,-7.372837999999999
2026-05-10 11:27:20.980,949,2.8361411,-1.1173822,2.10872055,7.0306773499999995,-4.3235897,-8.45200775
2026-05-10 11:27:20.990,950,2.7758937,-1.1536648,2.1173797,7.1842337,-4.544532,-8.811731
2026-05-10 11:27:21.000,951,2.5005523666666667,-1.1397616000000002,2.0209107,7.1384187,-4.638350766666666,-8.944441666666668
2026-05-10 11:27:21.010,952,2.296993775,-1.0886763350000002,1.919105975,7.0467887,-4.8259883,-9.209863
2026-05-10 11:27:21.020,953,2.09933,-0.95627534,1.7583953,6.2547256749999995,-4.6630015,-8.93795075
2026-05-10 11:27:21.030,954,2.03033195,-0.83599392,1.7094900000000002,5.6447005,-4.388914,-8.596859
2026-05-10 11:27:21.040,955,1.9613339000000003,-0.7157125,1.6605847,5.6447005,-4.388914,-8.596859
2026-05-10 11:27:21.050,956,2.1271668000000004,-0.468777355,1.52048505,5.1968596,-4.16865895,-8.230110875000001
2026-05-10 11:27:21.060,957,2.2929997,-0.22184221,1.3803854,5.0475793,-4.0952406,-8.1078615
2026-05-10 11:27:21.070,958,2.2929997,-0.22184221,1.3803854,4.854189533333333,-4.017151666666667,-7.985383
2026-05-10 11:27:21.080,959,2.58237635,-0.16689998,1.2568111499999999,3.7035995,-3.3882404,-7.89657875
2026-05-10 11:27:21.090,960,3.0199019,-0.1593842975,1.0163703375,2.939789,-2.915507,-8.0527315
2026-05-10 11:27:21.100,961,2.337941333333333,-0.6438384,0.9654221499999999,2.092366166666667,-2.2651901333333333,-8.449997166666668
2026-05-10 11:27:21.110,962,1.44365135,-1.2318400999999999,1.3080946,1.886962575,-1.280488125,-8.22648425
2026-05-10 11:27:21.120,963,0.78144807,-1.8524251,1.0306699,3.3437235,-1.6624697,-7.6187115
2026-05-10 11:27:21.130,964,0.3471544100000001,-2.274604266666667,0.7045126466666667,3.6436584666666665,-1.8991291333333333,-7.536601
2026-05-10 11:27:21.140,965,-0.19982874,-2.7203417,0.3588624,4.6350927,-2.8223503,-7.1407094
2026-05-10 11:27:21.150,966,-0.7897412,-2.9598677,0.19470648,4.731647625,-3.1778737,-6.723106625
2026-05-10 11:27:21.160,967,-1.2579088,-3.1831430000000003,0.111927262,4.4476335,-3.215861875,-5.842926025
2026-05-10 11:27:21.170,968,-1.7260764,-3.4064183,0.029148044,3.5976908,-2.7624853,-4.1237984
2026-05-10 11:27:21.180,969,-1.7274026249999999,-3.58839545,0.020961590000000002,2.8539624249999997,-1.9360228899999998,-3.3413565
2026-05-10 11:27:21.190,970,-1.7918118,-3.85507275,0.074394581,1.4209489499999999,-0.246636855,-1.9768363
2026-05-10 11:27:21.200,971,-1.8557789,-4.061091,0.13055639,0.8733846,0.41141775,-1.491733
2026-05-10 11:27:21.210,972,-1.893494525,-4.0759393500000005,0.1483775525,0.8733846,0.41141775,-1.491733
2026-05-10 11:27:21.220,973,-2.095960775,-4.12601835,0.3588471725,-0.46246318,1.65365045,0.003856085000000016
2026-05-10 11:27:21.230,974,-2.1257339,-4.127863,0.41118255,-0.59757894,1.7802141,0.20295998
2026-05-10 11:27:21.240,975,-2.1257339,-4.127863,0.41118255,-0.59757894,1.7802141,0.20295998
2026-05-10 11:27:21.250,976,-2.0771945,-3.9898672,0.70876086,-0.8772025,2.447279,1.3884968
2026-05-10 11:27:21.260,977,-2.0771945,-3.9898672,0.70876086,-0.43661594,2.892905,3.1213686
2026-05-10 11:27:21.270,978,-2.0039787666666666,-3.792050666666667,0.81214086,-0.6011423133333333,2.7819311333333334,2.6133323333333336
2026-05-10 11:27:21.280,979,-1.612243425,-3.34075895,0.8723832149999999,-0.23762658,3.1262555,3.802178
2026-05-10 11:27:21.290,980,-1.4938676,-3.2232978,0.875234,-0.23762658,3.1262555,3.802178
2026-05-10 11:27:21.300,981,-1.4938676,-3.2232978,0.875234,-0.23762658,3.1262555,3.802178
2026-05-10 11:27:21.310,982,-1.3795520333333335,-3.0829440666666668,0.8561068666666666,-0.2565634,3.5941784,4.658153
2026-05-10 11:27:21.320,983,-1.1509209,-2.8022366,0.8178526,-0.2565634,3.5941784,4.658153
2026-05-10 11:27:21.330,984,-0.371850965,-2.0342041,0.761202975,-2.483701775,5.6878044249999995,6.121442675
2026-05-10 11:27:21.340,985,0.34006049,-1.7513217333333333,1.04943115,-6.116593666666667,8.2678575,7.5005089666666676
2026-05-10 11:27:21.350,986,1.3828551,-1.46410985,1.9737279749999999,-8.789014250000001,8.34258625,8.543141
2026-05-10 11:27:21.360,987,2.3979448000000003,-1.18165435,2.97709455,-9.062186,6.491665,8.903819
2026-05-10 11:27:21.370,988,2.56704,-1.1218947,3.1702461,-8.584794666666667,5.857281400000001,8.688082333333334
2026-05-10 11:27:21.380,989,2.95752025,-0.611133205,3.1310363,-7.4378188000000005,5.17967915,7.964767
2026-05-10 11:27:21.390,990,2.72935135,-0.36340534,2.6100913,-6.4173302,4.8305696000000005,6.682713
2026-05-10 11:27:21.400,991,2.0382288,-0.28855342,1.8646210000000003,-6.8888803,4.6428814,5.9182153
2026-05-10 11:27:21.410,992,1.7591118000000001,-0.3524443525,1.808184775,-7.043276575,4.212106824999999,5.8135282749999995
2026-05-10 11:27:21.420,993,1.1643972333333332,-0.55495109,1.5798279333333334,-7.198232666666667,3.4640131666666663,5.954510666666667
2026-05-10 11:27:21.430,994,1.077319,-0.57972896,1.5372238,-7.347182,2.9287934,6.2332687
2026-05-10 11:27:21.440,995,1.08564265,-0.6311039199999999,1.533580325,-7.64681135,2.79570115,6.59772635
2026-05-10 11:27:21.450,996,1.2439953333333333,-0.8064088266666666,1.5387077,-8.379238,2.642145,7.2169147
2026-05-10 11:27:21.460,997,1.3106862,-0.81699884,1.5467366,-8.379238,2.642145,7.2169147
2026-05-10 11:27:21.470,998,2.5812483,-0.46057564,1.7236372,-8.5431025,2.4239897,5.997551250000001
2026-05-10 11:27:21.480,999,0.7321463825000001,-0.7570716,1.875414275,-7.980038025,1.32821195,3.6483927
2026-05-10 11:27:21.490,1000,1.1101258,-0.6608312,2.1379297,-7.3648967999999995,0.9664906333333333,4.0263146
2026-05-10 11:27:21.500,1001,1.1101258,-0.6608312,2.1379297,-6.755559000000001,0.7666359000000001,4.181067
