timestamp,id,acc_x,acc_y,acc_z,gyro_x,gyro_y,gyro_z
2026-05-10 11:26:16.830,1,1.1422617,-0.0009756667,0.75473917,-1.7453947,-1.8490891,-0.9454667
2026-05-10 11:26:16.840,2,1.11177215,0.03277630165,0.74568376,-1.6429984499999999,-1.9141462,-1.02205395
2026-05-10 11:26:16.850,3,1.0812826,0.06652827,0.73662835,-1.5406022,-1.9792033,-1.0986412
2026-05-10 11:26:16.860,4,1.1853131,0.14348398,0.6632704,-1.4504995,-2.1529946,-1.1128438
2026-05-10 11:26:16.870,5,1.1853131,0.14348398,0.6632704,-1.4504995,-2.1529946,-1.1128438
2026-05-10 11:26:16.880,6,1.1853131,0.14348398,0.6632704,-1.4236214,-2.286316,-1.1458305
2026-05-10 11:26:16.890,7,1.1853131,0.14348398,0.6632704,-1.4236214,-2.286316,-1.1458305
2026-05-10 11:26:16.900,8,1.2731840499999998,0.17083314,0.64933665,-1.4236214,-2.286316,-1.1458305
2026-05-10 11:26:16.910,9,1.3610549999999997,0.1981823,0.6354029,-1.4236214,-2.286316,-1.1458305
2026-05-10 11:26:16.920,10,1.361055,0.1981823,0.6354029,-1.4236214,-2.286316,-1.1458305
2026-05-10 11:26:16.930,11,1.3610549999999997,0.1981823,0.6354029,-1.4236214,-2.286316,-1.1458305
2026-05-10 11:26:16.940,12,1.361055,0.1981823,0.6354029,-1.4236214,-2.286316,-1.1458305
2026-05-10 11:26:16.950,13,1.3610549999999997,0.1981823,0.6354029,-1.4236214,-2.286316,-1.1458305
2026-05-10 11:26:16.960,14,1.361055,0.1981823,0.6354029,-1.4236214,-2.286316,-1.1458305
2026-05-10 11:26:16.970,15,1.361055,0.1981823,0.6354029,-1.4236214,-2.286316,-1.1458305
2026-05-10 11:26:16.980,16,1.361055,0.1981823,0.6354029,-1.4236214,-2.286316,-1.1458305
2026-05-10 11:26:16.990,17,1.361055,0.1981823,0.6354029,-1.4236214,-2.286316,-1.1458305
2026-05-10 11:26:17.000,18,1.3610549999999997,0.1981823,0.6354029,-1.4236214,-2.286316,-1.1458305
2026-05-10 11:26:17.010,19,1.361055,0.1981823,0.6354029,-1.4236214,-2.286316,-1.1458305
2026-05-10 11:26:17.020,20,1.361055,0.1981823,0.6354029,-1.4236214,-2.286316,-1.1458305
2026-05-10 11:26:17.030,21,1.361055,0.1981823,0.6354029,-1.4236214,-2.286316,-1.1458305
2026-05-10 11:26:17.040,22,1.361055,0.1981823,0.6354029,-1.4236214,-2.286316,-1.1458305
2026-05-10 11:26:17.050,23,1.3610549999999997,0.1981823,0.6354029,-1.4236214,-2.286316,-1.1458305
2026-05-10 11:26:17.060,24,1.361055,0.1981823,0.6354029,-1.4236214,-2.286316,-1.1458305
2026-05-10 11:26:17.070,25,1.361055,0.1981823,0.6354029,-1.4236214,-2.286316,-1.1458305
2026-05-10 11:26:17.080,26,1.361055,0.1981823,0.6354029,-1.4236214,-2.286316,-1.1458305
2026-05-10 11:26:17.090,27,1.361055,0.1981823,0.6354029,-1.4236214,-2.286316,-1.1458305
2026-05-10 11:26:17.100,28,1.361055,0.1981823,0.6354029,-1.4236214,-2.286316,-1.1458305
2026-05-10 11:26:17.110,29,1.3610549999999997,0.1981823,0.6354029,-1.4236214,-2.286316,-1.1458305
2026-05-10 11:26:17.120,30,1.361055,0.1981823,0.6354029,-1.4236214,-2.286316,-1.1458305
2026-05-10 11:26:17.130,31,1.361055,0.1981823,0.6354029,-1.4236214,-2.286316,-1.1458305
2026-05-10 11:26:17.140,32,1.361055,0.1981823,0.6354029,-1.4236214,-2.286316,-1.1458305
2026-05-10 11:26:17.150,33,1.534860875,0.248795015,0.5820613825,-1.97515635,-2.13123255,-1.492152875
2026-05-10 11:26:17.160,34,2.0562785,0.40063316,0.42203683,-3.6297611999999995,-1.6659822,-2.53112
2026-05-10 11:26:17.170,35,2.0562785,0.40063316,0.42203683,-3.6297612,-1.6659822,-2.53112
2026-05-10 11:26:17.180,36,2.0562785,0.40063316,0.42203683,-3.6297612,-1.6659822,-2.53112
2026-05-10 11:26:17.190,37,2.0562785,0.40063316,0.42203683,-3.6297612,-1.6659822,-2.53112
2026-05-10 11:26:17.200,38,2.0562785,0.40063316,0.42203683,-3.6297612,-1.6659822,-2.53112
2026-05-10 11:26:17.210,39,2.0562988333333334,0.4104711233333333,0.6304432866666667,-4.108221366666666,-1.3305153666666667,-2.7400868333333332
2026-05-10 11:26:17.220,40,2.0563191666666665,0.42030908666666666,0.8388497433333334,-4.5866815333333335,-0.9950485333333334,-2.949053666666667
2026-05-10 11:26:17.230,41,2.0563395,0.43014705,1.0472562,-5.0651417,-0.6595817,-3.1580205
2026-05-10 11:26:17.240,42,2.0563395,0.43014705,1.0472562,-5.0651417,-0.6595817,-3.1580205
2026-05-10 11:26:17.250,43,2.06298625,0.4474498875,1.174275825,-5.150891925,-0.5610796875,-3.226819225
2026-05-10 11:26:17.260,44,2.1489872333333335,0.5247257333333334,2.105814033333333,-5.408142600000001,-0.26557365,-3.4332154
2026-05-10 11:26:17.270,45,2.1820176,0.5374094,2.3810537,-5.4081426,-0.26557365,-3.4332154
2026-05-10 11:26:17.280,46,2.1820176,0.5374094,2.3810537,-5.4081426,-0.26557365,-3.4332154
2026-05-10 11:26:17.290,47,2.1820176,0.5374094,2.3810537,-5.4081426,-0.26557365,-3.4332154
2026-05-10 11:26:17.300,48,2.1820176,0.5374094,2.3810537,-5.408142600000001,-0.26557365,-3.4332154
2026-05-10 11:26:17.310,49,2.1820176,0.5374094,2.3810537,-5.4081426,-0.26557365,-3.4332154
2026-05-10 11:26:17.320,50,2.1820176,0.5374094,2.3810537,-5.4081426,-0.26557365,-3.4332154
2026-05-10 11:26:17.330,51,2.1820176,0.5374094,2.3810537,-5.4081426,-0.26557365,-3.4332154
2026-05-10 11:26:17.340,52,2.1820176,0.5374094,2.3810537,-5.4081426,-0.26557365,-3.4332154
2026-05-10 11:26:17.350,53,2.1820176,0.5374094,2.3810537,-5.408142600000001,-0.26557365,-3.4332154
2026-05-10 11:26:17.360,54,2.1820176,0.5374094,2.3810537,-5.4081426,-0.26557365,-3.4332154
2026-05-10 11:26:17.370,55,2.1820176,0.5374094,2.3810537,-5.4081426,-0.26557365,-3.4332154
2026-05-10 11:26:17.380,56,2.1820176,0.5374094,2.3810537,-5.3575172,-0.193911525,-3.553823125
2026-05-10 11:26:17.390,57,2.1820176,0.5374094,2.3810537,-5.205641,0.02107485,-3.9156463
2026-05-10 11:26:17.400,58,2.1820176,0.5374094,2.3810537,-5.02310685,0.046540295,-4.017431725
2026-05-10 11:26:17.410,59,2.1820176,0.5374094,2.3810537,-4.4755044,0.12293663,-4.322788
2026-05-10 11:26:17.420,60,2.1820176,0.5374094,2.3810537,-4.4755044,0.12293663,-4.322788
2026-05-10 11:26:17.430,61,2.1820176,0.5374094,2.3810537,-4.4755044,0.12293663,-4.322788
2026-05-10 11:26:17.440,62,2.1820176,0.5374094,2.3810537,-4.4755044,0.12293663,-4.322788
2026-05-10 11:26:17.450,63,2.1820176,0.5374094,2.3810537,-4.4755044,0.12293663,-4.322788
2026-05-10 11:26:17.460,64,2.1820176,0.5374094,2.3810537,-4.4755044,0.12293663,-4.322788
2026-05-10 11:26:17.470,65,2.1820176,0.5374094,2.3810537,-4.4755044,0.12293663,-4.322788
2026-05-10 11:26:17.480,66,2.1820176,0.5374094,2.3810537,-4.4755044,0.12293663,-4.322788
2026-05-10 11:26:17.490,67,2.1820176,0.5374094,2.3810537,-4.4755044,0.12293663,-4.322788
2026-05-10 11:26:17.500,68,2.1820176,0.5374094,2.3810537,-4.4755044,0.12293663,-4.322788
2026-05-10 11:26:17.510,69,2.1820176,0.5374094,2.3810537,-4.4755044,0.12293663,-4.322788
2026-05-10 11:26:17.520,70,2.1820176,0.5374094,2.3810537,-4.4755044,0.12293663,-4.322788
2026-05-10 11:26:17.530,71,2.1820176,0.5374094,2.3810537,-4.4755044,0.12293663,-4.322788
2026-05-10 11:26:17.540,72,2.1820176,0.5374094,2.3810537,-4.4755044,0.12293663,-4.322788
2026-05-10 11:26:17.550,73,2.1820176,0.5374094,2.3810537,-4.4755044,0.12293663,-4.322788
2026-05-10 11:26:17.560,74,2.1820176,0.5374094,2.3810537,-4.4755044,0.12293663,-4.322788
2026-05-10 11:26:17.570,75,2.1820176,0.5374094,2.3810537,-4.4755044,0.12293663,-4.322788
2026-05-10 11:26:17.580,76,2.1820176,0.5374094,2.3810537,-4.4755044,0.12293663,-4.322788
2026-05-10 11:26:17.590,77,2.1820176,0.5374094,2.3810537,-4.4755044,0.12293663,-4.322788
2026-05-10 11:26:17.600,78,2.1820176,0.5374094,2.3810537,-4.4755044,0.12293663,-4.322788
2026-05-10 11:26:17.610,79,2.1820176,0.5374094,2.3810537,-4.4755044,0.12293663,-4.322788
2026-05-10 11:26:17.620,80,2.1820176,0.5374094,2.3810537,-4.4755044,0.12293663,-4.322788
2026-05-10 11:26:17.630,81,2.1820176,0.5374094,2.3810537,-4.4755044,0.12293663,-4.322788
2026-05-10 11:26:17.640,82,2.1820176,0.5374094,2.3810537,-4.4755044,0.12293663,-4.322788
2026-05-10 11:26:17.650,83,2.1820176,0.5374094,2.3810537,-4.4755044,0.12293663,-4.322788
2026-05-10 11:26:17.660,84,2.1820176,0.5374094,2.3810537,-4.4755044,0.12293663,-4.322788
2026-05-10 11:26:17.670,85,2.1820176,0.5374094,2.3810537,-4.4755044,0.12293663,-4.322788
2026-05-10 11:26:17.680,86,2.1820176,0.5374094,2.3810537,-4.4755044,0.12293663,-4.322788
2026-05-10 11:26:17.690,87,2.1820176,0.5374094,2.3810537,-4.4755044,0.12293663,-4.322788
2026-05-10 11:26:17.700,88,2.1820176,0.5374094,2.3810537,-4.4755044,0.12293663,-4.322788
2026-05-10 11:26:17.710,89,2.1820176,0.5374094,2.3810537,-4.4755044,0.12293663,-4.322788
2026-05-10 11:26:17.720,90,2.0945125,0.515213,2.8845584,-4.4755044,0.12293663,-4.322788
2026-05-10 11:26:17.730,91,2.0945125,0.515213,2.8845584,-4.4755044,0.12293663,-4.322788
2026-05-10 11:26:17.740,92,2.0945125,0.515213,2.8845584,-4.4755044,0.12293663,-4.322788
2026-05-10 11:26:17.750,93,2.0945125,0.515213,2.8845584,-4.4755044,0.12293663,-4.322788
2026-05-10 11:26:17.760,94,2.0945125,0.515213,2.8845584,-4.4755044,0.12293663,-4.322788
2026-05-10 11:26:17.770,95,2.0945125,0.515213,2.8845584,-4.4755044,0.12293663,-4.322788
2026-05-10 11:26:17.780,96,2.0945125,0.515213,2.8845584,-4.4755044,0.12293663,-4.322788
2026-05-10 11:26:17.790,97,2.0945125,0.515213,2.8845584,-4.4755044,0.12293663,-4.322788
2026-05-10 11:26:17.800,98,2.0945125,0.515213,2.8845584,-4.4755044,0.12293663,-4.322788
2026-05-10 11:26:17.810,99,2.0945125,0.515213,2.8845584,-4.4755044,0.12293663,-4.322788
2026-05-10 11:26:17.820,100,2.0945125,0.515213,2.8845584,-4.4755044,0.12293663,-4.322788
2026-05-10 11:26:17.830,101,2.0945125,0.515213,2.8845584,-4.4755044,0.12293663,-4.322788
2026-05-10 11:26:17.840,102,1.8587975,0.575490915,3.1048152,-4.4755044,0.12293663,-4.322788
2026-05-10 11:26:17.850,103,1.6230825,0.63576883,3.325072,-4.4755044,0.12293663,-4.322788
2026-05-10 11:26:17.860,104,1.6230825,0.63576883,3.325072,-4.4755044,0.12293663,-4.322788
2026-05-10 11:26:17.870,105,1.6230825,0.63576883,3.325072,-4.4755044,0.12293663,-4.322788
2026-05-10 11:26:17.880,106,1.6230825,0.63576883,3.325072,-4.4755044,0.12293663,-4.322788
2026-05-10 11:26:17.890,107,1.6230825,0.63576883,3.325072,-4.4755044,0.12293663,-4.322788
2026-05-10 11:26:17.900,108,1.6230825,0.63576883,3.325072,-3.5776851,0.26053402999999997,-4.3923503
2026-05-10 11:26:17.910,109,1.6230825,0.63576883,3.325072,-2.6798658,0.39813143,-4.4619126
2026-05-10 11:26:17.920,110,1.6230825,0.63576883,3.325072,-2.6798658,0.39813143,-4.4619126
2026-05-10 11:26:17.930,111,1.6230825,0.63576883,3.325072,-2.6798658,0.39813143,-4.4619126
2026-05-10 11:26:17.940,112,1.6230825,0.63576883,3.325072,-2.6798658,0.39813143,-4.4619126
2026-05-10 11:26:17.950,113,1.6230825,0.63576883,3.325072,-2.6798658,0.39813143,-4.4619126
2026-05-10 11:26:17.960,114,1.6230825,0.63576883,3.325072,-2.6798658,0.39813143,-4.4619126
2026-05-10 11:26:17.970,115,1.6230825,0.63576883,3.325072,-2.6798658,0.39813143,-4.4619126
2026-05-10 11:26:17.980,116,1.4428433250000001,0.7130599075,3.3848011000000002,-2.6798658,0.39813143,-4.4619126
2026-05-10 11:26:17.990,117,1.3827635999999999,0.7388236,3.4047108,-2.6798658,0.39813143,-4.4619126
2026-05-10 11:26:18.000,118,1.3827636,0.7388236,3.4047108,-2.6798658,0.39813143,-4.4619126
2026-05-10 11:26:18.010,119,1.3827636,0.7388236,3.4047108,-2.6798658,0.39813143,-4.4619126
2026-05-10 11:26:18.020,120,1.3827636,0.7388236,3.4047108,-2.6798658,0.39813143,-4.4619126
2026-05-10 11:26:18.030,121,1.3827636,0.7388236,3.4047108,-2.6798658,0.39813143,-4.4619126
2026-05-10 11:26:18.040,122,1.3827635999999999,0.7388236,3.4047108,-2.6798658,0.39813143,-4.4619126
2026-05-10 11:26:18.050,123,1.3827636,0.7388236,3.4047108,-2.6798658,0.39813143,-4.4619126
2026-05-10 11:26:18.060,124,1.3827636,0.7388236,3.4047108,-2.6798658,0.39813143,-4.4619126
2026-05-10 11:26:18.070,125,1.3827636,0.7388236,3.4047108,-2.6798658,0.39813143,-4.4619126
2026-05-10 11:26:18.080,126,1.3827636,0.7388236,3.4047108,-2.6798658,0.39813143,-4.4619126
2026-05-10 11:26:18.090,127,1.3827636,0.7388236,3.4047108,-2.6798658,0.39813143,-4.4619126
2026-05-10 11:26:18.100,128,1.3827635999999999,0.7388236,3.4047108,-2.6798658,0.39813143,-4.4619126
2026-05-10 11:26:18.110,129,1.3827636,0.7388236,3.4047108,-2.2881485,0.475176815,-4.3624179000000005
2026-05-10 11:26:18.120,130,1.3827636,0.7388236,3.4047108,-1.8964312,0.5522222,-4.2629232
2026-05-10 11:26:18.130,131,1.3827636,0.7388236,3.4047108,-1.8964312,0.5522222,-4.2629232
2026-05-10 11:26:18.140,132,1.3827636,0.7388236,3.4047108,-1.8964312,0.5522222,-4.2629232
2026-05-10 11:26:18.150,133,1.3827636,0.7388236,3.4047108,-1.8964312,0.5522222,-4.2629232
2026-05-10 11:26:18.160,134,1.3827636,0.7388236,3.4047108,-1.8964312,0.5522222,-4.2629232
2026-05-10 11:26:18.170,135,1.3827635999999999,0.7388236,3.4047108,-1.8964312,0.5522222,-4.2629232
2026-05-10 11:26:18.180,136,1.3827636,0.7388236,3.4047108,-1.8964312,0.5522222,-4.2629232
2026-05-10 11:26:18.190,137,1.3827636,0.7388236,3.4047108,-1.8964312,0.5522222,-4.2629232
2026-05-10 11:26:18.200,138,1.3827636,0.7388236,3.4047108,-1.8964312,0.5522222,-4.2629232
2026-05-10 11:26:18.210,139,1.3827636,0.7388236,3.4047108,-1.8964312,0.5522222,-4.2629232
2026-05-10 11:26:18.220,140,1.3827635999999999,0.7388236,3.4047108,-1.8964312,0.5522222,-4.2629232
2026-05-10 11:26:18.230,141,1.3827636,0.7388236,3.4047108,-1.8964312,0.5522222,-4.2629232
2026-05-10 11:26:18.240,142,1.3827636,0.7388236,3.4047108,-1.8964312,0.5522222,-4.2629232
2026-05-10 11:26:18.250,143,1.34026115,0.77553305,3.4170591000000003,-1.8964312,0.5522222,-4.2629232
2026-05-10 11:26:18.260,144,1.2977587,0.8122425,3.4294074,-1.3144293,0.68897965,-4.047822200000001
2026-05-10 11:26:18.270,145,1.2977587,0.8122425,3.4294074,-0.7324274000000001,0.8257371,-3.8327212
2026-05-10 11:26:18.280,146,1.2977587,0.8122425,3.4294074,-0.7324274,0.8257371,-3.8327212
2026-05-10 11:26:18.290,147,1.2977587,0.8122425,3.4294074,-0.7324274,0.8257371,-3.8327212
2026-05-10 11:26:18.300,148,1.2977587,0.8122425,3.4294074,-0.7324274,0.8257371,-3.8327212
2026-05-10 11:26:18.310,149,1.2977587,0.8122425,3.4294074,-0.7324274000000001,0.8257371,-3.8327212
2026-05-10 11:26:18.320,150,1.2977587,0.8122425,3.4294074,-0.7324274,0.8257371,-3.8327212
2026-05-10 11:26:18.330,151,1.2977587,0.8122425,3.4294074,-0.7324274,0.8257371,-3.8327212
2026-05-10 11:26:18.340,152,1.2977587,0.8122425,3.4294074,-0.7324274,0.8257371,-3.8327212
2026-05-10 11:26:18.350,153,1.2977587,0.8122425,3.4294074,-0.7324274,0.8257371,-3.8327212
2026-05-10 11:26:18.360,154,1.3270083666666668,0.8196819666666667,3.439936433333333,-0.014151666666666637,1.0147999,-3.6361753
2026-05-10 11:26:18.370,155,1.4685613,0.8129743,3.4237366,1.4223998,1.3929255,-3.2430835
2026-05-10 11:26:18.380,156,1.4685613,0.8129743,3.4237366,1.4223998,1.3929255,-3.2430835
2026-05-10 11:26:18.390,157,1.5581193666666666,0.77463872,3.3915393999999996,1.4223998,1.3929254999999998,-3.2430834999999996
2026-05-10 11:26:18.400,158,1.6028984,0.75547093,3.3754408,1.4223998,1.3929255,-3.2430835
2026-05-10 11:26:18.410,159,1.6028984,0.75547093,3.3754408,1.4223998,1.3929255,-3.2430835
2026-05-10 11:26:18.420,160,1.6028984,0.75547093,3.3754408,1.4223998,1.3929254999999998,-3.2430834999999996
2026-05-10 11:26:18.430,161,1.6028984,0.75547093,3.3754408,1.4223998,1.3929255,-3.2430835
2026-05-10 11:26:18.440,162,1.6028984,0.75547093,3.3754408,1.4223998,1.3929255,-3.2430835
2026-05-10 11:26:18.450,163,1.6028984,0.75547093,3.3754408,1.4223998,1.3929255,-3.2430835
2026-05-10 11:26:18.460,164,1.6028984,0.75547093,3.3754408,2.1152736,1.20600075,-3.19505425
2026-05-10 11:26:18.470,165,1.6028984,0.75547093,3.3754408,2.8081474000000006,1.019076,-3.1470250000000006
2026-05-10 11:26:18.480,166,1.6028984,0.75547093,3.3754408,4.644103,-0.19440787,-3.2372804
2026-05-10 11:26:18.490,167,1.719886925,0.7224506575,3.43205995,4.644103,-0.19440787,-3.2372804
2026-05-10 11:26:18.500,168,1.7588831,0.7114439,3.450933,4.644103,-0.19440787,-3.2372804
2026-05-10 11:26:18.510,169,1.7588831,0.7114439,3.450933,4.644103,-0.19440787,-3.2372804
2026-05-10 11:26:18.520,170,1.7588831,0.7114439,3.450933,4.644103,-0.19440787,-3.2372804
2026-05-10 11:26:18.530,171,1.7588831,0.7114439,3.450933,4.644103,-0.19440787,-3.2372804
2026-05-10 11:26:18.540,172,1.7588831,0.7114439,3.450933,4.644103,-0.19440787,-3.2372804
2026-05-10 11:26:18.550,173,1.7588831,0.7114439,3.450933,4.644103,-0.19440787,-3.2372804
2026-05-10 11:26:18.560,174,1.7588831,0.7114439,3.4509330000000005,4.644103,-0.19440787,-3.2372804
2026-05-10 11:26:18.570,175,2.3703823,0.6472329,3.4400177,7.0570207,-1.7001907,-4.009567
2026-05-10 11:26:18.580,176,2.3703823,0.6472329,3.4400177,7.0570207,-1.7001907,-4.009567
2026-05-10 11:26:18.590,177,2.3703823,0.6472329,3.4400177,7.0570207,-1.7001907,-4.009567
2026-05-10 11:26:18.600,178,2.3703823,0.6472329,3.4400177,7.1995051,-1.75593215,-4.1416664999999995
2026-05-10 11:26:18.610,179,2.3703823,0.6472329,3.4400177,7.3419895,-1.8116736,-4.273766
2026-05-10 11:26:18.620,180,2.37797415,0.64400098,3.42080925,7.3419895,-1.8116736,-4.273766
2026-05-10 11:26:18.630,181,2.385566,0.64076906,3.4016008,7.3419895,-1.8116736,-4.273766
2026-05-10 11:26:18.640,182,2.385566,0.64076906,3.4016008,7.3419895,-1.8116736,-4.273766
2026-05-10 11:26:18.650,183,2.385566,0.64076906,3.4016008,7.3419895,-1.8116736,-4.273766
2026-05-10 11:26:18.660,184,2.385566,0.64076906,3.4016008,7.3419895,-1.8116736,-4.273766
2026-05-10 11:26:18.670,185,2.385566,0.64076906,3.4016008,7.3419895,-1.8116736,-4.273766
2026-05-10 11:26:18.680,186,2.385566,0.64076906,3.4016008,7.3419895,-1.8116736,-4.273766
2026-05-10 11:26:18.690,187,2.3482263999999997,0.6168449066666667,3.2347211666666666,7.3419895,-1.8116736,-4.273766
2026-05-10 11:26:18.700,188,2.2735472,0.5689966,2.9009619,7.3419895,-1.8116736,-4.273766
2026-05-10 11:26:18.710,189,2.2735472,0.5689966,2.9009619,7.3419895,-1.8116736,-4.273766
2026-05-10 11:26:18.720,190,2.2735472,0.5689966,2.9009619,7.3419895,-1.8116736,-4.273766
2026-05-10 11:26:18.730,191,2.2735472,0.5689966,2.9009619,7.39658545,-1.6438384,-4.6141705
2026-05-10 11:26:18.740,192,2.2735472,0.5689966,2.9009619,7.4511814,-1.4760032,-4.954575
2026-05-10 11:26:18.750,193,2.048961,0.5172863,2.757295,7.051676,-0.9068295,-5.05323
2026-05-10 11:26:18.760,194,2.1087816,0.309042415,2.99676015,6.734637,-0.27962357,-4.9449544
2026-05-10 11:26:18.770,195,2.1610408,0.2294646,3.105547,6.8425305000000005,-0.065897089475,-4.9000556500000005
2026-05-10 11:26:18.780,196,2.1610408,0.2294646,3.105547,6.878495,0.0053450707,-4.8850894
2026-05-10 11:26:18.790,197,2.1610408,0.2294646,3.105547,6.878495,0.0053450707,-4.8850894
2026-05-10 11:26:18.800,198,2.1412225,0.19324298,3.1389636000000003,6.878495,0.0053450707,-4.8850894
2026-05-10 11:26:18.810,199,2.1214042,0.15702136,3.1723802,6.878495,0.0053450707,-4.8850894
2026-05-10 11:26:18.820,200,2.1214042,0.15702136,3.1723802000000005,6.878495,0.0053450707,-4.8850894
2026-05-10 11:26:18.830,201,2.1214042,0.15702136,3.1723802,6.878495,0.0053450707,-4.8850894
2026-05-10 11:26:18.840,202,2.1214042,0.15702136,3.1723802,6.878495,0.0053450707,-4.8850894
2026-05-10 11:26:18.850,203,2.1214042,0.15702136,3.1723802,6.878495,0.0053450707,-4.8850894
2026-05-10 11:26:18.860,204,2.1214042,0.15702136,3.1723802,7.0790880000000005,-0.10758864465000001,-4.92510105
2026-05-10 11:26:18.870,205,2.1214042,0.15702136,3.1723802000000005,7.279681,-0.22052236,-4.9651127
2026-05-10 11:26:18.880,206,2.1214042,0.15702136,3.1723802,8.22186475,-1.0250318649999999,-5.1591386749999995
2026-05-10 11:26:18.890,207,1.902153625,-0.03826442299999999,2.904422525,8.535926,-1.2932017,-5.223814
2026-05-10 11:26:18.900,208,1.8290701,-0.103359684,2.8151033,8.535926,-1.2932017,-5.223814
2026-05-10 11:26:18.910,209,1.8290701,-0.103359684,2.8151033,8.535926,-1.2932017,-5.223814
2026-05-10 11:26:18.920,210,1.8290701,-0.103359684,2.8151033,8.535926,-1.2932017,-5.223814
2026-05-10 11:26:18.930,211,1.7304667999999999,-0.12296449200000001,2.61896385,8.6000665,-1.3907110999999999,-5.229159
2026-05-10 11:26:18.940,212,1.6318635,-0.1425693,2.4228244,8.664207,-1.4882205,-5.234504
2026-05-10 11:26:18.950,213,1.6269242000000002,-0.076711796,2.0013363,8.367174,-1.5465580999999997,-5.2015176
2026-05-10 11:26:18.960,214,1.6269242,-0.076711796,2.0013363,8.367174,-1.5465581,-5.2015176
2026-05-10 11:26:18.970,215,1.77254255,-0.01442157425,1.8560382,7.49497305,-1.347377825,-5.4404424
2026-05-10 11:26:18.980,216,1.821082,0.006341833,1.8076055,7.2042394,-1.2809844,-5.520084
2026-05-10 11:26:18.990,217,1.821082,0.006341833,1.8076055,7.2042394,-1.2809844,-5.520084
2026-05-10 11:26:19.000,218,1.8210819999999999,0.006341833000000001,1.8076055,7.2042394,-1.2809844,-5.520084
2026-05-10 11:26:19.010,219,1.821082,0.006341833,1.8076055,7.2042394,-1.2809844,-5.520084
2026-05-10 11:26:19.020,220,1.821082,0.006341833,1.8076055,6.8027482,-1.134453115,-5.677763499999999
2026-05-10 11:26:19.030,221,1.758974575,-0.055582511749999994,1.9251428000000002,6.401257,-0.98792183,-5.835443
2026-05-10 11:26:19.040,222,1.7382721,-0.07622396,1.9643219,6.401257,-0.98792183,-5.835443
2026-05-10 11:26:19.050,223,1.7382721000000003,-0.07622396,1.9643219,6.280967333333334,-0.92062482,-5.876065566666667
2026-05-10 11:26:19.060,224,1.4789886,-0.21239044,2.0763407,6.040388,-0.7860308,-5.9573107
2026-05-10 11:26:19.070,225,1.4789886,-0.21239044,2.0763407,6.040388,-0.7860308,-5.9573107
2026-05-10 11:26:19.080,226,1.4789886,-0.21239044,2.0763407,6.040388,-0.7860308,-5.9573107
2026-05-10 11:26:19.090,227,1.2520242,-0.33715382,2.1242702,6.0368757,-0.78694713,-5.8803415
2026-05-10 11:26:19.100,228,1.1297407333333334,-0.39943387333333336,2.1187413999999998,6.2495587666666665,-1.0737483766666667,-5.750125566666667
2026-05-10 11:26:19.110,229,0.8029127,-0.41075566,1.5686891,6.8335967,-2.2820399,-5.3777523
2026-05-10 11:26:19.120,230,0.8029127,-0.41075566,1.5686891,6.5339675,-2.4339926,-5.134322
2026-05-10 11:26:19.130,231,0.8994274875,-0.4204666,1.4638964250000002,6.0341651,-1.948202,-5.0429978250000005
2026-05-10 11:26:19.140,232,0.9894479500000001,-0.44740414999999994,1.3176379,5.371949,-1.2368494,-4.941747
2026-05-10 11:26:19.150,233,0.944445325,-0.471856805,1.26361035,5.371949,-1.2368494,-4.941747
2026-05-10 11:26:19.160,234,0.8994427,-0.49630946,1.2095828,5.19098,-1.01544895,-4.917236025
2026-05-10 11:26:19.170,235,0.876224875,-0.51510627,1.17875785,5.107024175,-0.9323330999999999,-4.880851375000001
2026-05-10 11:26:19.180,236,0.8065714,-0.5714967,1.086283,5.029559,-0.9622145666666667,-4.757672933333334
2026-05-10 11:26:19.190,237,0.8065714,-0.5714967,1.086283,5.0164256,-1.0778717,-4.680602
2026-05-10 11:26:19.200,238,0.8065714,-0.5714967,1.086283,5.0164256,-1.0778717,-4.680602
2026-05-10 11:26:19.210,239,0.7956562,-0.61723113,0.9502994,5.0164256,-1.0778717,-4.680602
2026-05-10 11:26:19.220,240,0.7956562,-0.61723113,0.9502994,5.0164256,-1.0778717,-4.680602
2026-05-10 11:26:19.230,241,0.7956562000000001,-0.61723113,0.9502994,5.0164256,-1.0778717,-4.680602
2026-05-10 11:26:19.240,242,0.7956562,-0.61723113,0.9502994,5.0164256,-1.0778717,-4.680602
2026-05-10 11:26:19.250,243,0.7956562,-0.61723113,0.9502994,5.0164256,-1.0778717,-4.680602
2026-05-10 11:26:19.260,244,0.76974,-0.7060168,0.772728,5.0164256,-1.0778717,-4.680602
2026-05-10 11:26:19.270,245,0.76974,-0.7060168,0.772728,4.9753956666666665,-1.1894564333333333,-4.6596291333333335
2026-05-10 11:26:19.280,246,0.7212616,-0.7630323,0.64680606,4.791016,-1.3681854,-4.6097417
2026-05-10 11:26:19.290,247,0.7212616,-0.7630323,0.64680606,4.791016,-1.3681854,-4.6097417
2026-05-10 11:26:19.300,248,0.7212616,-0.7630323,0.64680606,4.791016,-1.3681854,-4.6097417
2026-05-10 11:26:19.310,249,0.7212616,-0.7630323,0.64680606,4.791016,-1.3681854,-4.6097417
2026-05-10 11:26:19.320,250,0.7212616,-0.7630323,0.64680606,4.791016,-1.3681854,-4.6097417
2026-05-10 11:26:19.330,251,0.68744865,-0.778353325,0.60840442,4.791016,-1.3681854,-4.6097417
2026-05-10 11:26:19.340,252,0.5860098,-0.8243164,0.4931995,4.791016,-1.3681854,-4.6097417
2026-05-10 11:26:19.350,253,0.5860098,-0.8243164,0.4931995,4.689574175,-1.3935745,-4.577404025
2026-05-10 11:26:19.360,254,0.5860098,-0.8243164,0.4931995,4.3852487,-1.4697418,-4.480391
2026-05-10 11:26:19.370,255,0.5860098,-0.8243164,0.4931995,4.3852487,-1.4697418000000002,-4.480391
2026-05-10 11:26:19.380,256,0.5860098,-0.8243164,0.4931995,4.3852487,-1.4697418,-4.480391
2026-05-10 11:26:19.390,257,0.5860098,-0.8243164,0.4931995,4.3852487,-1.4697418,-4.480391
2026-05-10 11:26:19.400,258,0.42673222000000005,-0.8955400666666667,0.46380753333333335,4.050392766666667,-1.4882714000000001,-4.308025199999999
2026-05-10 11:26:19.410,259,0.34709343,-0.9311519,0.44911155,3.8829648,-1.4975362,-4.2218423
2026-05-10 11:26:19.420,260,0.34709343,-0.9311519,0.44911155,3.821840125,-1.521207225,-4.1645737249999994
2026-05-10 11:26:19.430,261,0.34709343,-0.9311519,0.44911155,3.6384661,-1.5922203,-3.992768
2026-05-10 11:26:19.440,262,0.34709343,-0.9311519,0.44911155,3.6384661,-1.5922203,-3.992768
2026-05-10 11:26:19.450,263,0.34709343,-0.9311519,0.44911155,3.6384661,-1.5922203,-3.992768
2026-05-10 11:26:19.460,264,0.34709343,-0.9311519,0.44911155,3.6384661,-1.5922203,-3.992768
2026-05-10 11:26:19.470,265,0.34709343,-0.9311519,0.44911155,3.6384661,-1.5922203,-3.992768
2026-05-10 11:26:19.480,266,0.3212382575,-0.9296731500000001,0.4441417525,3.6384661,-1.5922203,-3.992768
2026-05-10 11:26:19.490,267,0.24367274,-0.9252369,0.42923236,3.352695775,-1.695761925,-3.596583575
2026-05-10 11:26:19.500,268,0.2298508,-0.9345057533333333,0.42575655333333334,3.257439,-1.7302758,-3.4645221
2026-05-10 11:26:19.510,269,0.13689823,-1.0263404,0.4158779,3.1471014999999998,-1.54510725,-3.1687107
2026-05-10 11:26:19.520,270,0.1422644,-1.0496954,0.40416992,3.036764,-1.3599387,-2.8728993
2026-05-10 11:26:19.530,271,0.1422644,-1.0496954,0.40416992,3.0815607666666662,-1.1765773333333334,-2.7918069333333335
2026-05-10 11:26:19.540,272,0.25778945,-1.1070005749999998,0.31027725500000003,3.1711543,-0.8098546,-2.6296222
2026-05-10 11:26:19.550,273,0.2962978,-1.1261023,0.2789797,3.1711543,-0.8098546,-2.6296222
2026-05-10 11:26:19.560,274,0.30513975,-1.14649985,0.160893539,3.22911015,-0.7500661799999999,-2.7085766
2026-05-10 11:26:19.570,275,0.3139817,-1.1668974,0.042807378,3.287066,-0.69027776,-2.787531
2026-05-10 11:26:19.580,276,0.3139817,-1.1668974,0.042807378,3.287066,-0.69027776,-2.787531
2026-05-10 11:26:19.590,277,0.3139817,-1.1668974,0.042807378,3.287066,-0.69027776,-2.787531
2026-05-10 11:26:19.600,278,0.3139817,-1.1668974,0.042807378,3.287066,-0.69027776,-2.787531
2026-05-10 11:26:19.610,279,0.3139817,-1.1668974,0.042807378,3.287066,-0.69027776,-2.787531
2026-05-10 11:26:19.620,280,0.3139817,-1.1668974,0.042807378,3.287066,-0.69027776,-2.787531
2026-05-10 11:26:19.630,281,0.3139817,-1.1668974,0.042807378,3.2914566,-0.669584695,-2.8352548
2026-05-10 11:26:19.640,282,0.28216582749999997,-1.182751975,-0.0179736115,3.3046284,-0.6075055,-2.9784262
2026-05-10 11:26:19.650,283,0.18671821,-1.2303157,-0.20031658,3.3046284,-0.6075055,-2.9784262
2026-05-10 11:26:19.660,284,0.18671821,-1.2303157,-0.20031658,3.3046284,-0.6075055,-2.9784262
2026-05-10 11:26:19.670,285,0.18671821,-1.2303157,-0.20031658,3.3046284,-0.6075055,-2.9784262
2026-05-10 11:26:19.680,286,0.18671821,-1.2303157,-0.20031658,3.2219324499999997,-0.6058256,-3.05883135
2026-05-10 11:26:19.690,287,0.041968911775,-1.2881239,-0.42779934999999997,3.1392365,-0.6041457,-3.1392365
2026-05-10 11:26:19.700,288,-0.0062808543,-1.3073933,-0.50362694,3.1392365000000004,-0.6041457,-3.1392365000000004
2026-05-10 11:26:19.710,289,-0.066040438225,-1.3297879,-0.5605205125,3.1392365,-0.6041457,-3.1392365
2026-05-10 11:26:19.720,290,-0.24531919,-1.3969717,-0.73120123,2.9063822750000003,-0.6521368125,-3.1639766000000002
2026-05-10 11:26:19.730,291,-0.24531919,-1.3969717,-0.73120123,2.8287642,-0.66813385,-3.1722233
2026-05-10 11:26:19.740,292,-0.24531919,-1.3969717,-0.73120123,2.595566325,-0.8347855375,-3.1321352
2026-05-10 11:26:19.750,293,-0.24531919,-1.3969717,-0.73120123,2.5178337,-0.8903361,-3.1187725
2026-05-10 11:26:19.760,294,-0.3158568425,-1.4141526,-0.7712188050000001,2.5178337,-0.8903361,-3.1187725
2026-05-10 11:26:19.770,295,-0.5274698,-1.4656953,-0.89127153,2.5178337,-0.8903361,-3.1187725
2026-05-10 11:26:19.780,296,-0.5274698,-1.4656953,-0.89127153,2.5178337,-0.8903361,-3.1187725
2026-05-10 11:26:19.790,297,-0.5274698,-1.4656953,-0.89127153,2.5178337,-0.8903361,-3.1187725
2026-05-10 11:26:19.800,298,-0.5274698,-1.4656953,-0.89127153,2.5178337,-0.8903361,-3.1187725
2026-05-10 11:26:19.810,299,-0.5274698,-1.4656953,-0.89127153,2.5178337,-0.8903361,-3.1187725
2026-05-10 11:26:19.820,300,-0.9459089,-1.5763724,-0.9628001,1.9152153,-2.13925,-2.2750149
2026-05-10 11:26:19.830,301,-1.0528460333333334,-1.6193423666666664,-0.9969484666666667,1.8579975666666666,-2.1436279333333332,-2.2334251666666667
2026-05-10 11:26:19.840,302,-1.2667203,-1.7052823,-1.0652452,1.5903113,-2.01715345,-2.0557142500000003
2026-05-10 11:26:19.850,303,-1.2667203,-1.7052822999999997,-1.0652452,1.4370605,-1.8819231,-1.9611828000000002
2026-05-10 11:26:19.860,304,-1.2667203,-1.7052823,-1.0652452,1.4370605,-1.8819231,-1.9611828
2026-05-10 11:26:19.870,305,-1.2667203,-1.7052823,-1.0652452,1.4370605,-1.8819231,-1.9611828
2026-05-10 11:26:19.880,306,-1.2667203,-1.7052823,-1.0652452,1.4370605,-1.8819231,-1.9611828
2026-05-10 11:26:19.890,307,-1.68816255,-1.83407035,-1.0935546999999999,0.533361725,-1.582980975,-0.80962551
2026-05-10 11:26:19.900,308,-1.8500266666666665,-1.8909842666666667,-1.0717902,0.2321288,-1.4833336,-0.4257730800000001
2026-05-10 11:26:19.910,309,-1.8927934,-1.9189534,-1.0093882,0.053603435000000005,-1.359060685,-0.140537185
2026-05-10 11:26:19.920,310,-1.8333590666666666,-1.9082210666666668,-0.8202308,-0.6934338733333334,-0.74398296,1.0518081666666668
2026-05-10 11:26:19.930,311,-1.6444862,-1.8929764,-0.55460554,-1.2363149500000001,-0.07815256,1.90605235
2026-05-10 11:26:19.940,312,-1.4773423,-1.845275425,-0.4623897875,-1.8303813999999998,0.83780168,2.7364473499999997
2026-05-10 11:26:19.950,313,-1.0377841333333333,-1.7232102666666667,-0.14956157666666667,-2.6397015666666666,1.8158988666666669,3.3640858666666666
2026-05-10 11:26:19.960,314,-0.9849355,-1.7031481,-0.07530928,-2.9272664,2.118939,3.5341609
2026-05-10 11:26:19.970,315,-0.9849355,-1.7031481,-0.07530928,-3.0951398,2.2601633750000003,3.5502342999999996
2026-05-10 11:26:19.980,316,-0.9849355,-1.7031481,-0.07530928,-3.59876,2.6838365,3.5984545
2026-05-10 11:26:19.990,317,-0.9662962199999999,-1.6946720666666666,0.015834249999999994,-3.704541433333333,2.7844256,3.5850154666666665
2026-05-10 11:26:20.000,318,-0.92901766,-1.67772,0.19812131,-3.9161043,2.9856038,3.5581374
2026-05-10 11:26:20.010,319,-0.92310267,-1.671362875,0.29286769,-3.937179225,3.048942925,3.55821375
2026-05-10 11:26:20.020,320,-0.883679615,-1.64788575,0.6330552224999999,-4.000404,3.2389603,3.5584428
2026-05-10 11:26:20.030,321,-0.50765157,-1.5524075999999998,1.141713,-3.5694892333333335,3.1519628999999996,3.6726746
2026-05-10 11:26:20.040,322,-0.50765157,-1.5524076,1.141713,-3.4213035,3.072805,3.692375
2026-05-10 11:26:20.050,323,-0.50765157,-1.5524076,1.141713,-3.4213035,3.072805,3.692375
2026-05-10 11:26:20.060,324,-0.50765157,-1.5524076,1.141713,-3.4213035,3.072805,3.692375
2026-05-10 11:26:20.070,325,-0.50765157,-1.5524075999999998,1.141713,-3.4213035,3.0728050000000002,3.692375
2026-05-10 11:26:20.080,326,-0.415313865,-1.5327418499999999,1.2429231,-3.2878677,2.992170775,3.678515975
2026-05-10 11:26:20.090,327,-0.38453463,-1.5261866,1.2766598,-3.2433891,2.9652927,3.6738963
2026-05-10 11:26:20.100,328,-0.38453463,-1.5261866,1.2766598,-3.2433891,2.9652927,3.6738963
2026-05-10 11:26:20.110,329,-0.38453463,-1.5261866,1.2766598,-3.2433891,2.9652927,3.6738963
2026-05-10 11:26:20.120,330,-0.38453462999999993,-1.5261866,1.2766598,-3.2433891,2.9652927000000004,3.6738963000000004
2026-05-10 11:26:20.130,331,-0.38453462999999993,-1.5261866,1.2766598,-3.2433891,2.9652927000000004,3.6738963000000004
2026-05-10 11:26:20.140,332,-0.2673529966666667,-1.5110841,1.4582761333333334,-2.9142854000000002,2.9971085333333334,3.5880188
2026-05-10 11:26:20.150,333,-0.03298973,-1.4808791,1.8215088,-2.256078,3.0607402,3.4162638
2026-05-10 11:26:20.160,334,-0.03298973,-1.4808791,1.8215088,-2.256078,3.0607402,3.4162638
2026-05-10 11:26:20.170,335,0.027765846666666663,-1.4581745333333334,1.8570393,-2.256078,3.0607402,3.4162638
2026-05-10 11:26:20.180,336,0.149277,-1.4127654000000003,1.9281002999999999,-1.6550884000000001,4.096157,3.2761720666666663
2026-05-10 11:26:20.190,337,0.149277,-1.4127654,1.9281003,-1.3545936,4.6138654,3.2061262
2026-05-10 11:26:20.200,338,0.08808440649999999,-1.41499115,1.7893422,-1.3545936,4.6138654,3.2061262
2026-05-10 11:26:20.210,339,0.026891813,-1.4172169,1.6505841000000003,-1.3545936,4.6138654,3.2061262
2026-05-10 11:26:20.220,340,0.026891813,-1.4172169,1.6505841,-1.3545936,4.6138654,3.2061262
2026-05-10 11:26:20.230,341,-0.254649,-1.3906909,1.220559,-2.281887,6.548781,4.195575
2026-05-10 11:26:20.240,342,-0.40461201,-1.225239175,0.4354979725,-3.6964218750000004,6.948516,5.20086855
2026-05-10 11:26:20.250,343,-0.38349798,-1.2039117,0.31989673,-4.1679335,7.081761,5.5359664
2026-05-10 11:26:20.260,344,-0.38349798,-1.2039117,0.31989673,-6.036265,6.9466066,6.5278587
2026-05-10 11:26:20.270,345,-0.38349798,-1.2039117,0.31989673,-6.036265,6.9466066,6.5278587
2026-05-10 11:26:20.280,346,0.55323345,-1.2370691249999999,0.7397840125,-7.9937065,6.24140095,7.168923525
2026-05-10 11:26:20.290,347,0.86547726,-1.2481216,0.87974644,-9.341199,5.544366,7.406282999999999
2026-05-10 11:26:20.300,348,0.86547726,-1.2481216,0.87974644,-9.341199,5.544366,7.406283
2026-05-10 11:26:20.310,349,1.16211048,-1.22470565,1.10982082,-9.341199,5.544366,7.406283
2026-05-10 11:26:20.320,350,2.031887,-1.0492076,2.0392654,-9.341199,5.544366,7.406283
2026-05-10 11:26:20.330,351,2.031887,-1.0492076,2.0392654,-9.572308999999999,4.891249066666666,7.164278533333333
2026-05-10 11:26:20.340,352,2.031887,-1.0492076,2.0392654,-9.687864,4.5646906,7.0432763
2026-05-10 11:26:20.350,353,2.1661022,-0.94225013,2.4388618,-9.181152,3.4193182,6.546032
2026-05-10 11:26:20.360,354,2.1988327,-0.7538244749999999,2.9013430749999998,-8.5109565,3.0162235,6.310161625
2026-05-10 11:26:20.370,355,1.9511505,-0.50624907,2.8641915,-6.50037,1.8069394,5.6025505
2026-05-10 11:26:20.380,356,1.9511505,-0.50624907,2.8641915,-6.50037,1.8069394,5.6025505
2026-05-10 11:26:20.390,357,1.9511505,-0.50624907,2.8641915,-5.6083536,1.6594155,5.4415874
2026-05-10 11:26:20.400,358,1.9511505,-0.50624907,2.8641915,-5.6083536,1.6594155,5.4415874
2026-05-10 11:26:20.410,359,1.7332261500000001,-0.3438005475,2.2579824,-5.6083536,1.6594155,5.4415874
2026-05-10 11:26:20.420,360,1.6605847,-0.28965104,2.0559127,-5.6083536,1.6594155,5.4415874
2026-05-10 11:26:20.430,361,1.7358330333333332,-0.2713573,1.4444542333333334,-4.962109133333333,1.6917913333333334,5.6119680999999995
2026-05-10 11:26:20.440,362,1.7734572,-0.26221043,1.138725,-6.314666750000001,2.4229589,5.816429749999999
2026-05-10 11:26:20.450,363,1.7734572,-0.26221043,1.138725,-6.735553,2.652377,5.866597
2026-05-10 11:26:20.460,364,1.7734572,-0.26221043,1.138725,-6.735553,2.652377,5.866597
2026-05-10 11:26:20.470,365,1.7734572,-0.26221043,1.138725,-6.735553,2.652377,5.866597
2026-05-10 11:26:20.480,366,1.7734572,-0.26221043,1.138725,-6.735553,2.652377,5.866597
2026-05-10 11:26:20.490,367,1.8236278,-0.36957949749999996,1.254997,-7.451334500000001,3.05302825,5.6860864
2026-05-10 11:26:20.500,368,1.9741396,-0.6916867,1.603813,-10.1746865,4.17297325,4.313243275
2026-05-10 11:26:20.510,369,1.9741396,-0.6916867,1.603813,-10.366689,4.145637,4.0361395
2026-05-10 11:26:20.520,370,1.9271856666666665,-0.7847814999999999,1.6656866,-10.366689,4.145637,4.0361395
2026-05-10 11:26:20.530,371,1.9037087,-0.8313289,1.6966234,-10.366689,4.145637,4.0361395
2026-05-10 11:26:20.540,372,1.9037087,-0.8313289,1.6966234,-10.360122,3.6215146,3.1835241
2026-05-10 11:26:20.550,373,1.9037087,-0.8313289,1.6966234,-10.360122,3.6215146,3.1835241
2026-05-10 11:26:20.560,374,1.8559925,-0.8506593,1.7084228750000001,-9.969779,2.681393,2.2036965
2026-05-10 11:26:20.570,375,1.7128439,-0.9086504999999999,1.7438212999999998,-9.969779,2.681393,2.2036965
2026-05-10 11:26:20.580,376,1.47927845,-0.9576777750000001,1.789144025,-9.969779,2.681393,2.2036965
2026-05-10 11:26:20.590,377,1.4014233,-0.9740202,1.8042516,-9.969779,2.681393,2.2036965
2026-05-10 11:26:20.600,378,1.4014233,-0.9740202,1.8042516,-9.969779,2.681393,2.2036965
2026-05-10 11:26:20.610,379,1.1443959750000001,-0.9623579250000001,1.8627915750000001,-9.536141,1.89326225,1.8002962500000002
2026-05-10 11:26:20.620,380,1.0587202,-0.9584705,1.8823049,-8.63965775,0.5171356,1.543274625
2026-05-10 11:26:20.630,381,1.0516060666666667,-0.8158402566666667,1.8279521666666667,-7.343669166666667,-1.1105021,1.9026925333333333
2026-05-10 11:26:20.640,382,1.147689,-0.64101297,1.7374184,-6.3459735,-2.2710443,2.3780985
2026-05-10 11:26:20.650,383,1.147689,-0.64101297,1.7374184,-6.3459735,-2.2710443,2.3780985
2026-05-10 11:26:20.660,384,1.31522925,-0.567441635,1.64287025,-6.24770075,-2.35053315,2.4589617500000003
2026-05-10 11:26:20.670,385,1.4827695,-0.4938703,1.5483221,-6.149428,-2.430022,2.539825
2026-05-10 11:26:20.680,386,1.4827695,-0.4938703,1.5483221,-6.149428,-2.430022,2.539825
2026-05-10 11:26:20.690,387,1.4827695,-0.4938703,1.5483221,-6.488343625000001,-2.1551326,2.5001951499999997
2026-05-10 11:26:20.700,388,1.8664504,-0.35648423,1.2571466,-6.6013155,-2.0635028,2.4869852
2026-05-10 11:26:20.710,389,1.8664504,-0.35648423,1.2571466,-6.6013155,-2.0635028,2.4869852
2026-05-10 11:26:20.720,390,1.8664504,-0.35648423,1.2571466,-6.601315500000001,-2.0635028,2.4869852
2026-05-10 11:26:20.730,391,1.8664504,-0.35648423,1.2571466,-6.6013155,-2.0635028,2.4869852
2026-05-10 11:26:20.740,392,1.8664504,-0.35648423,1.2571466,-6.6013155,-2.0635028,2.4869852
2026-05-10 11:26:20.750,393,1.8664504,-0.35648423,1.2571466,-6.6013155,-2.0635028,2.4869852
2026-05-10 11:26:20.760,394,1.8664504,-0.35648423,1.2571466,-6.6013155,-2.0635028,2.4869852
2026-05-10 11:26:20.770,395,2.2843812333333333,-0.23712765333333333,1.3279433666666667,-7.8981824,-0.9976957,2.025171
2026-05-10 11:26:20.780,396,2.3569057,-0.21354906,1.6090573,-7.8981824,-0.9976957,2.025171
2026-05-10 11:26:20.790,397,2.3569057,-0.21354906,1.6090573,-8.788213,-0.07880162,1.4095715
2026-05-10 11:26:20.800,398,2.3569057,-0.21354906,1.6090573,-8.788213,-0.07880162,1.4095715
2026-05-10 11:26:20.810,399,2.1384987,-0.12569840066666668,1.9333038666666666,-8.533125666666669,0.05996660333333334,1.0220284266666666
2026-05-10 11:26:20.820,400,1.7016847,0.050002918,2.581797,-7.7800176500000005,0.24041365500000003,0.286075835
2026-05-10 11:26:20.830,401,1.924533075,0.402401509,2.777783975,-6.5501553999999995,-0.240299115,0.4689918
2026-05-10 11:26:20.840,402,2.4678879,0.8385855,2.9871864,-5.7418279,-0.434668805,0.47151162
2026-05-10 11:26:20.850,403,2.5387456,0.82760924,2.961636,-4.360967,-0.09621128,-0.14966199
2026-05-10 11:26:20.860,404,2.432977275,0.8287068550000001,3.0164715749999997,-4.046829499999999,-0.20055470999999997,-0.043562332499999995
2026-05-10 11:26:20.870,405,2.1156723,0.8319997,3.1809783,-3.104417,-0.513585,0.27473664
2026-05-10 11:26:20.880,406,2.0945328666666665,0.8675912333333334,3.3127745666666666,-2.7541876666666667,-0.6445646666666667,0.4045964066666667
2026-05-10 11:26:20.890,407,2.052254,0.9387743,3.5763671,-2.053729,-0.906524,0.66431594
2026-05-10 11:26:20.900,408,2.2610466,1.2067168,4.1674995,-2.053729,-0.906524,0.66431594
2026-05-10 11:26:20.910,409,2.2610466,1.2067168,4.1674995,-2.053729,-0.906524,0.66431594
2026-05-10 11:26:20.920,410,2.578931,1.3753852,4.680944,-2.053729,-0.906524,0.66431594
2026-05-10 11:26:20.930,411,2.578931,1.3753852,4.680944,0.042913284,-0.9140071,1.1052079
2026-05-10 11:26:20.940,412,2.6225311,1.373784475,4.714696,1.3413074,-0.7984009,1.1992812
2026-05-10 11:26:20.950,413,2.7533314,1.3689823,4.815952,1.3413074,-0.7984009,1.1992812
2026-05-10 11:26:20.960,414,2.7533314,1.3689823,4.815952,1.3413074,-0.7984009,1.1992812
2026-05-10 11:26:20.970,415,2.7533314,1.3689823,4.815952,1.3413074,-0.7984009,1.1992812
2026-05-10 11:26:20.980,416,3.131371825,1.3945935999999999,4.661644,1.3413074,-0.7984009,1.1992812
2026-05-10 11:26:20.990,417,3.2573853,1.4031307,4.610208,1.3413074,-0.7984009,1.1992812
2026-05-10 11:26:21.000,418,3.2573853,1.4031307,4.610208,1.3413074,-0.7984009,1.1992812
2026-05-10 11:26:21.010,419,3.2573853,1.4031307,4.610208,2.041129875,-0.8878163,1.23203885
2026-05-10 11:26:21.020,420,3.2573853000000006,1.4031307,4.610208,4.1405973,-1.1560625,1.3303118
2026-05-10 11:26:21.030,421,3.2573853,1.4031307,4.610208,4.1405973,-1.1560625,1.3303118
2026-05-10 11:26:21.040,422,3.2573853,1.4031307,4.610208,4.93960905,-1.33970385,1.1995103
2026-05-10 11:26:21.050,423,4.0066667250000005,1.2990239749999999,3.7779033,6.4631834,-1.3542882500000002,0.75105885
2026-05-10 11:26:21.060,424,4.595450850000001,1.2172204,2.6973981250000003,7.3248854,-0.6404922,-0.23441954
2026-05-10 11:26:21.070,425,4.6250257,1.2120829,2.5659423,7.3248854,-0.6404922,-0.23441954
2026-05-10 11:26:21.080,426,4.6250257,1.2120829,2.5659423,7.3248854,-0.6404922,-0.23441954
2026-05-10 11:26:21.090,427,4.6250257,1.2120829,2.5659423,7.3248854,-0.6404922,-0.23441954
2026-05-10 11:26:21.100,428,4.6250257,1.2120829,2.5659423,7.3248854,-0.6404922,-0.23441954
2026-05-10 11:26:21.110,429,4.6250257,1.2120829,2.5659423,7.3248854,-0.6404922,-0.23441954
2026-05-10 11:26:21.120,430,4.6250257,1.2120829,2.5659423,6.36815585,-0.009392047499999993,-1.73565911
2026-05-10 11:26:21.130,431,4.398396775,1.231001725,2.22987085,5.7416371250000005,0.3132593375,-2.482861825
2026-05-10 11:26:21.140,432,3.4991676666666667,1.2485485,1.8896630666666667,3.4743979333333335,1.2858713466666665,-3.9375864000000003
2026-05-10 11:26:21.150,433,2.8835219,1.1492439,2.22604455,2.1131357,2.0651063499999998,-4.9415181
2026-05-10 11:26:21.160,434,2.5274187,1.066723825,2.31618695,2.3233496000000002,2.061593875,-5.325790525
2026-05-10 11:26:21.170,435,1.7183929000000002,0.7395146833333333,2.4506714333333335,3.5424075,1.5426893000000002,-5.297678
2026-05-10 11:26:21.180,436,1.3097715,0.5441781,2.5022192,4.246353175,1.347148775,-5.108436875
2026-05-10 11:26:21.190,437,1.3097715,0.5441781,2.5022192,4.350582,1.3332134,-5.073083
2026-05-10 11:26:21.200,438,1.64692525,0.19193193,2.156375875,6.224716875,1.254144525,-4.7041207499999995
2026-05-10 11:26:21.210,439,1.9477356000000001,-0.0659489725,1.9015134,6.84524155,1.10211544,-4.8390835999999995
2026-05-10 11:26:21.220,440,2.0925002,-0.20037755,1.7940072,7.351610699999999,0.8852964599999998,-5.052008
2026-05-10 11:26:21.230,441,2.08201175,-0.2833549625,1.758684975,7.512611775,0.7021132449999999,-5.208656749999999
2026-05-10 11:26:21.240,442,2.0505464,-0.5322872,1.6527183,8.1778055,-0.1990657,-5.847889
2026-05-10 11:26:21.250,443,1.7840675000000001,-0.890804,1.4019313666666668,8.421183999999998,-1.0092512,-6.1488168666666665
2026-05-10 11:26:21.260,444,1.7421138,-0.9474943,1.3461151,8.451778,-1.2385293,-6.2146378
2026-05-10 11:26:21.270,445,1.7421138,-0.9474943,1.3461151,8.367898875,-1.3113367999999999,-6.221624525
2026-05-10 11:26:21.280,446,1.857273,-0.9746604999999999,1.244218975,7.75947765,-1.61921285,-6.286681625
2026-05-10 11:26:21.290,447,1.8956594000000002,-0.9837159,1.2102536,7.6405497,-1.6490307,-6.301380599999999
2026-05-10 11:26:21.300,448,1.8956594,-0.9837159,1.2102536,7.6405497,-1.6490307,-6.3013806
2026-05-10 11:26:21.310,449,1.8956594,-0.9837159,1.2102536,7.509061025,-1.6173039,-6.367315875
2026-05-10 11:26:21.320,450,2.145735025,-0.994494,1.4332391,6.69783215,-1.1971432,-6.8517702
2026-05-10 11:26:21.330,451,2.2397647,-1.0246329,1.6146674,6.281069300000001,-0.8721628999999999,-7.1384187
2026-05-10 11:26:21.340,452,2.2177819,-1.04631105,2.04100315,6.220898875,-1.5238033100000001,-7.75161285
2026-05-10 11:26:21.350,453,1.690632175,-0.82786845,2.1695016249999997,5.8025325,-1.24593606,-7.5407113500000005
2026-05-10 11:26:21.360,454,1.4645367,-0.7010775,2.0998178,5.386457,-0.60154957,-7.0861897
2026-05-10 11:26:21.370,455,1.4500236333333334,-0.7394537200000001,2.0556688333333333,5.386457,-0.60154957,-7.086189700000001
2026-05-10 11:26:21.380,456,1.49618485,-0.84154299,1.899684,5.042501425,-0.3412827775,-6.199709675
2026-05-10 11:26:21.390,457,1.5212473,-0.8499886,1.8771217,5.010011,-0.34040466,-6.104682
2026-05-10 11:26:21.400,458,1.8193947,-0.8988939333333333,1.8116301000000001,4.9815043333333335,-0.5253950199999999,-6.1999769333333346
2026-05-10 11:26:21.410,459,1.4009048499999999,-1.129654275,1.63148245,5.073312250000001,-0.8028678375,-6.6582400999999996
2026-05-10 11:26:21.420,460,1.211717,-1.1984235,1.5823485,5.16055135,-0.9641744375,-6.82489175
2026-05-10 11:26:21.430,461,0.7120538,-1.3244065,1.408131,5.461899,-1.5656476,-6.639036
2026-05-10 11:26:21.440,462,0.7120538,-1.3244065,1.408131,5.461899,-1.5656476,-6.639036
2026-05-10 11:26:21.450,463,0.6950253574999999,-1.331815475,1.388084075,5.461899,-1.5656476,-6.639036
2026-05-10 11:26:21.460,464,0.64394003,-1.3540424,1.3279433,5.461899,-1.5656476,-6.639036
2026-05-10 11:26:21.470,465,0.6384061725,-1.377366925,1.300106325,5.423910675,-1.34573616,-6.267095525
2026-05-10 11:26:21.480,466,0.6218046,-1.4473405,1.2165954,5.3682837,-0.8973610400000002,-5.8372755
2026-05-10 11:26:21.490,467,0.6218046,-1.4473405,1.2165954,5.3682837,-0.89736104,-5.8372755
2026-05-10 11:26:21.500,468,0.6218046,-1.4473405,1.2165954,5.3682837,-0.89736104,-5.8372755
2026-05-10 11:26:21.510,469,0.6218046,-1.4473405,1.2165954,5.3682837,-0.89736104,-5.8372755
2026-05-10 11:26:21.520,470,0.48280257000000004,-1.5056061,1.079575175,5.358929825000001,-0.8258134425000001,-5.726632625
2026-05-10 11:26:21.530,471,0.34380054,-1.5638717,0.94255495,5.3308682,-0.61117065,-5.394704
2026-05-10 11:26:21.540,472,0.13866661,-1.800532,0.67430764,5.3163221,-0.6175847625,-5.0586515
2026-05-10 11:26:21.550,473,0.007637635,-2.00656525,0.5523797874999999,5.3534703,-0.698142625,-4.860463875000001
2026-05-10 11:26:21.560,474,-0.16851592999999998,-2.2283312,0.435086355,5.479461,-0.9334021,-4.6019535
2026-05-10 11:26:21.570,475,-0.30099317,-2.3814194,0.35843554000000005,5.479461,-0.9334021,-4.6019535
2026-05-10 11:26:21.580,476,-1.1027167174999999,-2.959319075,-0.04722836750000001,6.240904875,-1.39636165,-4.08779565
2026-05-10 11:26:21.590,477,-1.3699579,-3.1519523,-0.18244967,6.4947195,-1.5506815,-3.9164097
2026-05-10 11:26:21.600,478,-1.8590109000000001,-3.4153214,-0.5103346,6.536818166666667,-1.6552412333333333,-3.605021133333333
2026-05-10 11:26:21.610,479,-1.9403571249999998,-3.47203205,-0.6636972,6.30565635,-1.829426875,-2.3450734250000003
2026-05-10 11:26:21.620,480,-1.6507212999999998,-3.54987185,-1.49931,3.6150241249999997,-0.77388992,0.10235809750000001
2026-05-10 11:26:21.630,481,-1.4728298,-3.5191078,-1.624485,2.9625437,-0.48181996,0.49556443
2026-05-10 11:26:21.640,482,-1.4728298000000002,-3.5191078,-1.624485,2.9625437,-0.48181996,0.49556443
2026-05-10 11:26:21.650,483,-1.1458596,-2.9142554,0.13305654,-4.273155,4.112803,2.1351268
2026-05-10 11:26:21.660,484,-0.95712905,-2.41806785,0.9429818675000001,-2.4311672250000003,3.29397625,3.30466645
2026-05-10 11:26:21.670,485,-0.75071458,-2.2294897999999996,1.1140894000000001,-1.34856133,2.885651,3.9010618500000005
2026-05-10 11:26:21.680,486,-0.63863486,-2.1345148,1.1576285,-0.8799513600000001,2.750268,4.1076107
2026-05-10 11:26:21.690,487,-0.53376593,-2.066126675,1.1576285,-0.7283422525,2.79111965,4.206914425000001
2026-05-10 11:26:21.700,488,-0.21915914,-1.8609623,1.1576285,-0.27351493,2.9136746,4.5048256
2026-05-10 11:26:21.710,489,-0.21915914,-1.8609623,1.1576285,-0.27351493,2.9136746,4.5048256
2026-05-10 11:26:21.720,490,-0.21915914,-1.8609623,1.1576285,-0.27351493,2.9136746,4.5048256
2026-05-10 11:26:21.730,491,0.24130980500000002,-1.555227975,0.9513054750000001,-0.245491477,4.0102158249999995,4.53334565
2026-05-10 11:26:21.740,492,0.3614997325,-1.08391995,0.4084994375,-1.6036357875,6.2205172,4.17667675
2026-05-10 11:26:21.750,493,0.32148215,-1.0460366,0.34697145,-1.8793269,6.4519587,4.146248
2026-05-10 11:26:21.760,494,0.32148215,-1.0460366,0.34697145,-1.8793269,6.4519587,4.146248
2026-05-10 11:26:21.770,495,0.161091713,-0.943500125,0.21150624,-3.719825625,7.094207175,4.4986406500000005
2026-05-10 11:26:21.780,496,0.076162982,-0.8552023,0.252789135,-5.5668149,7.451715999999999,5.014363749999999
2026-05-10 11:26:21.790,497,0.082565795,-0.7580015175,0.4156797375,-6.969017875,7.175910249999999,5.609308375
2026-05-10 11:26:21.800,498,0.19616999,-0.62875617,0.64503765,-7.246847,7.088022,5.739079
2026-05-10 11:26:21.810,499,0.19616999,-0.62875617,0.64503765,-7.246847,7.088022,5.739079
2026-05-10 11:26:21.820,500,0.4990535,-0.52039623,0.90554065,-8.47209,6.5558057,6.3018384
2026-05-10 11:26:21.830,501,0.8586629225,-0.44228187750000003,1.1032961125,-8.62495925,6.5172831,6.332610725
2026-05-10 11:26:21.840,502,1.2043995866666666,-0.3531303333333333,1.3304638333333334,-9.37836,6.3406796666666665,6.326018466666667
2026-05-10 11:26:21.850,503,1.9512724,-0.0075004376,2.7043653,-10.23917,5.4950385,4.1018076
2026-05-10 11:26:21.860,504,0.9657880649999999,-0.1709551,2.7508922,-8.47774065,4.751615275000001,3.1418709
2026-05-10 11:26:21.870,505,0.49466303,-0.22318375,2.552893,-7.0849676,3.8699841,3.2255213
2026-05-10 11:26:21.880,506,0.49466303000000006,-0.22318375,2.552893,-7.0849676,3.8699841,3.2255213
2026-05-10 11:26:21.890,507,0.428866475,-0.22045492249999998,2.136984425,-5.4922895,2.065641,4.079969
2026-05-10 11:26:21.900,508,0.7453026125,-0.1434839825,1.363982,-5.4922895,2.065641,4.079969
2026-05-10 11:26:21.910,509,0.991307785,-0.07195541899999999,1.15579915,-5.319262,1.3106114,4.5350637
2026-05-10 11:26:21.920,510,1.1468961,-0.024391667999999995,1.0740261,-5.374647133333333,1.3076589,4.5233554666666675
2026-05-10 11:26:21.930,511,1.6061913,0.19324298,0.9888382,-6.2916064,1.3448198,3.7867537
2026-05-10 11:26:21.940,512,1.6061913,0.19324298,0.9888382,-6.2916064,1.3448198,3.7867537
2026-05-10 11:26:21.950,513,1.6061913,0.19324298,0.9888382,-6.2916064,1.3448198,3.7867537
2026-05-10 11:26:21.960,514,1.5496637,0.22019579,1.1405544,-7.931372400000001,1.8397225,2.2851959666666666
2026-05-10 11:26:21.970,515,0.946838825,-0.010579884999999997,1.223699475,-8.394777000000001,2.18281235,1.8267162250000002
2026-05-10 11:26:21.980,516,0.5229421000000001,-0.215393665,1.3199398,-7.880734424999999,1.8401169999999998,2.2416846
2026-05-10 11:26:21.990,517,0.3319096,-0.3913643,1.4150215,-6.3453627,0.9275989,3.2462907
2026-05-10 11:26:22.000,518,0.9353188666666666,-0.21501254666666667,1.3977441,-6.3453627,0.9275989,3.2462907
2026-05-10 11:26:22.010,519,1.2370235,-0.12683667,1.3891054,-5.6106443,0.54305923,3.4362698
2026-05-10 11:26:22.020,520,1.7492484,0.16976601,1.3890445,-5.6106443,0.54305923,3.4362698
2026-05-10 11:26:22.030,521,1.6906271333333336,0.29087063,1.2420846333333333,-5.0045137,-0.11667526499999999,2.8643471999999996
2026-05-10 11:26:22.040,522,1.6613165,0.35142294,1.1686047,-4.9160145250000005,-0.36312122375,2.6757807000000002
2026-05-10 11:26:22.050,523,1.6613165,0.35142294,1.1686047,-4.650517,-1.1024591,2.1100812
2026-05-10 11:26:22.060,524,1.26726905,0.392583885,1.110201975,-5.21908,-1.4906258000000001,1.9938259500000002
2026-05-10 11:26:22.070,525,1.1437863,0.32825086,1.5126492,-5.408601,-1.6200146999999998,1.9550742
2026-05-10 11:26:22.080,526,1.3648967,0.4109996,1.8959644,-6.32008815,-0.17436384225,2.603278675
2026-05-10 11:26:22.090,527,1.3648967,0.4109996,1.8959644,-6.3798766,0.024129177,2.670703
2026-05-10 11:26:22.100,528,1.3648967,0.4109996,1.8959644,-6.3825109,0.46864817175000006,2.761187275
2026-05-10 11:26:22.110,529,1.8766337666666668,0.4805158,2.0175161999999998,-6.3351310000000005,0.7575238166666667,2.631403833333333
2026-05-10 11:26:22.120,530,2.4373984,0.5225915,2.1084158,-6.299968175,0.7648032924999999,2.4464007499999996
2026-05-10 11:26:22.130,531,2.467323875,0.531021875,2.193512225,-5.96082305,-0.040622547500000016,1.860771875
2026-05-10 11:26:22.140,532,2.49837745,0.60442553,2.5217325500000003,-5.5167621,-0.60964354,1.8196911999999998
2026-05-10 11:26:22.150,533,2.7569089666666664,1.2506421,3.0649144666666666,-3.3474396,-0.74199768,1.5849407333333332
2026-05-10 11:26:22.160,534,2.6844555,1.52333575,3.201817875,-1.9264017249999998,0.2180407075,1.03259132
2026-05-10 11:26:22.170,535,2.6100304,1.542224,3.1975646,-1.701107,0.4560109,0.91996306
2026-05-10 11:26:22.180,536,2.6100304,1.542224,3.1975646,-1.7011069999999997,0.45601090000000005,0.91996306
2026-05-10 11:26:22.190,537,2.47101305,1.7055263250000001,3.1998818499999997,1.08401858,0.1482493625,1.441832925
2026-05-10 11:26:22.200,538,3.2322617,1.9352958,3.2882404,2.8663325,-0.50656,1.9207131
2026-05-10 11:26:22.210,539,3.788209,2.01008675,3.21713885,3.95703245,-0.71539955,1.61474595
2026-05-10 11:26:22.220,540,4.513251333333333,2.053514133333333,2.960477733333333,5.356321033333334,-0.9194030999999999,0.9552405366666666
2026-05-10 11:26:22.230,541,4.67198,1.9080381,1.7286373,6.134003,-0.73639804,-1.2759448
2026-05-10 11:26:22.240,542,4.67198,1.9080381,1.7286373,6.134003,-0.73639804,-1.2759448
2026-05-10 11:26:22.250,543,3.971695,1.8541325,0.6862595,4.0032289,-0.1882992185,-2.4317019
2026-05-10 11:26:22.260,544,3.5733791999999998,1.8766948333333335,0.4487659933333334,2.8041768,0.052534413,-2.7143798
2026-05-10 11:26:22.270,545,3.3742213,1.887976,0.33001924,2.8041768,0.052534413,-2.7143798
2026-05-10 11:26:22.280,546,3.3742213,1.887976,0.33001924,2.8041768,0.052534413,-2.7143798
2026-05-10 11:26:22.290,547,3.322388975,1.8984034250000001,0.42659500499999997,1.5649986,0.27187320825,-2.91481985
2026-05-10 11:26:22.300,548,3.1609364,1.9211283000000001,0.9042194333333334,0.94292145,0.37603846,-3.0993774666666667
2026-05-10 11:26:22.310,549,3.1490252,1.9040135,1.2800137,0.52488595,0.4381431,-3.334866
2026-05-10 11:26:22.320,550,3.12833805,1.894394025,1.3692415,0.52488595,0.4381431,-3.334866
2026-05-10 11:26:22.330,551,2.9335554000000004,1.80885545,1.7587001999999998,0.791604975,-0.04612033500000001,-3.92396925
2026-05-10 11:26:22.340,552,2.8008342,1.7521753,1.8804755,1.058324,-0.53038377,-4.5130725
2026-05-10 11:26:22.350,553,2.7743691999999998,1.7356957,1.8764204,1.1346058,-0.6157140025000001,-4.585498225
2026-05-10 11:26:22.360,554,2.7479042,1.7192161000000001,1.8723653,1.2108876,-0.701044235,-4.65792395
2026-05-10 11:26:22.370,555,2.6949742,1.6862569,1.8642551,1.3634512,-0.8717047,-4.8027754
2026-05-10 11:26:22.380,556,2.5889111333333332,1.6277778666666667,1.8889923,1.5820900333333334,-0.9555459333333333,-4.992550933333333
2026-05-10 11:26:22.390,557,2.376785,1.5108198,1.9384667,2.0193677,-1.1232284,-5.372102
2026-05-10 11:26:22.400,558,1.2248122750000001,0.64459555,2.201820425,4.3034311,0.0854447815,-5.4742306
2026-05-10 11:26:22.410,559,1.071282,0.36380172,2.054815,4.961753,0.1328632,-5.2363367
2026-05-10 11:26:22.420,560,1.2105583333333334,0.22769621333333334,2.0673361333333333,6.338439466666666,-0.7584400933333333,-4.783940333333334
2026-05-10 11:26:22.430,561,1.5356384250000001,-0.43636693000000004,1.51460055,8.37862725,-2.49087935,-5.65588695
2026-05-10 11:26:22.440,562,1.5931112,-0.51214879,1.274632275,7.9517853999999994,-2.876182625,-6.028820175
2026-05-10 11:26:22.450,563,1.7724204,-0.42392716,1.4708785000000002,6.495177299999999,-3.2804990000000003,-6.5165577
2026-05-10 11:26:22.460,564,1.829253,-0.39374248,1.75766355,6.4951773,-3.280499,-6.5165577
2026-05-10 11:26:22.470,565,1.8860856,-0.3635578,2.0444486,6.31970615,-3.2595769499999996,-6.67774985
2026-05-10 11:26:22.480,566,1.8860856000000001,-0.3635578,2.0444486,6.144234999999999,-3.2386549,-6.838942
2026-05-10 11:26:22.490,567,1.9087698,-0.36947277,2.1589065,6.1775274,-3.3437235,-7.0037227
2026-05-10 11:26:22.500,568,2.118477225,-0.2774857025,2.2489575,6.21872255,-3.82607805,-7.255552075000001
2026-05-10 11:26:22.510,569,2.4572775,-0.2335502,2.323611,6.0183973,-3.9881864,-7.604509
2026-05-10 11:26:22.520,570,2.815972125,-0.1929380825,2.777936475,5.891260825,-3.73196675,-8.123821
2026-05-10 11:26:22.530,571,2.935537,-0.17940071,2.9293783,5.848882,-3.6465602,-8.296925
2026-05-10 11:26:22.540,572,3.0726182,-0.24367274,3.407821,5.848882,-3.6465602,-8.296925
2026-05-10 11:26:22.550,573,3.0726181999999995,-0.24367273999999997,3.407821,6.4661613,-3.9235876,-8.83586
2026-05-10 11:26:22.560,574,3.0726182,-0.24367274,3.407821,6.4661613,-3.9235876,-8.83586
2026-05-10 11:26:22.570,575,2.594495825,-0.491141465,2.99105875,8.236105325,-4.51437055,-9.54728925
2026-05-10 11:26:22.580,576,2.2351303,-0.64704996,2.4827669,9.294773,-4.7633743,-9.918619
2026-05-10 11:26:22.590,577,1.9036170749999999,-0.62790249,1.86331,8.972465,-4.33347795,-9.734214
2026-05-10 11:26:22.600,578,1.39002005,-0.46581986499999994,0.70357765,6.7523134,-3.383429875,-8.502022499999999
2026-05-10 11:26:22.610,579,1.282910175,-0.37186620249999996,0.36308522,5.2499285,-3.0390546,-7.7327905
2026-05-10 11:26:22.620,580,1.2304986,-0.37776592000000003,0.23946517999999997,4.9838458999999995,-2.930982333333333,-7.614333500000001
2026-05-10 11:26:22.630,581,1.2304986,-0.37776592,0.23946518,4.4516807,-2.7148378,-7.3774195
2026-05-10 11:26:22.640,582,1.2454079999999998,-0.44789196,0.13512983,3.471165475,-2.5113433,-7.0005921749999995
2026-05-10 11:26:22.650,583,1.1851098333333334,-0.8724289666666666,0.2692433533333333,1.702685,-2.1928534333333336,-6.350809666666667
2026-05-10 11:26:22.660,584,1.130995875,-1.0944236250000001,0.42272282499999997,1.51968,-2.1551325,-6.28
2026-05-10 11:26:22.670,585,1.0051806,-1.5385044,0.65509915,1.4440345333333333,-2.0257309,-6.232607000000001
2026-05-10 11:26:22.680,586,0.8228834,-1.747419,0.720255405,1.7318793000000001,-1.63452265,-5.934708499999999
2026-05-10 11:26:22.690,587,0.6405862,-1.9563336,0.78541166,2.171015,-1.5021176,-5.731596
2026-05-10 11:26:22.700,588,-0.1348859,-2.7832723,0.79376584,2.171015,-1.5021176,-5.731596
2026-05-10 11:26:22.710,589,-0.1348859,-2.7832723,0.79376584,2.171015,-1.5021176,-5.731596
2026-05-10 11:26:22.720,590,-0.48132886666666663,-2.9789544333333335,0.6203207599999999,2.5321383,-1.511942366666667,-5.175861266666667
2026-05-10 11:26:22.730,591,-1.3101374,-3.4787397,-0.017074168,3.0079005,-1.5661057,-4.250095
2026-05-10 11:26:22.740,592,-1.249203975,-3.483297925,-0.099609471,2.6532933,-1.596458175,-2.745381025
2026-05-10 11:26:22.750,593,-0.8969222533333333,-3.4727026666666667,-0.34713408,-0.3045672666666667,-0.03125593333333332,-0.5386304199999999
2026-05-10 11:26:22.760,594,-0.7314451150000001,-3.34632335,-0.139794743,-1.9123137,0.782823835,0.293444395
2026-05-10 11:26:22.770,595,-0.654032075,-3.2098063000000003,0.128406883,-2.259896,0.92179567,0.38591412
2026-05-10 11:26:22.780,596,-0.6640022,-3.1429882,0.3111157,-2.7292439666666666,0.9499463333333334,0.7075855866666667
2026-05-10 11:26:22.790,597,-0.674429595,-2.94706225,1.08985018,-2.7194192,0.9140071,0.7788532
2026-05-10 11:26:22.800,598,-0.6795518399999999,-2.8714479999999996,1.2894045,-2.4878503999999997,0.844623,0.8338819666666667
2026-05-10 11:26:22.810,599,-0.67955184,-2.871448,1.2894045,-2.0247128,0.7058548,0.9439395
2026-05-10 11:26:22.820,600,-0.68193003,-2.81270985,1.3030638250000002,-2.0247128,0.7058548,0.9439395
2026-05-10 11:26:22.830,601,-0.698074275,-2.5443862999999998,1.259296,-0.353080115,0.9747118250000001,1.41659645
2026-05-10 11:26:22.840,602,-0.7437629,-2.2225686,0.9413353999999999,0.52885659,1.5211308,1.86436075
2026-05-10 11:26:22.850,603,-0.7010774666666667,-2.071320033333333,0.7685814466666666,0.59666264,1.5995506,1.9547688
2026-05-10 11:26:22.860,604,-0.5783874,-1.8598037,0.55051994,0.52542047,1.8294649499999998,2.30403095
2026-05-10 11:26:22.870,605,-0.5783874,-1.8598037,0.55051994,0.4541783,2.0593793,2.6532931
2026-05-10 11:26:22.880,606,0.019132215,-1.4246411,0.512468915,-0.57917665,2.90741315,2.985336625
2026-05-10 11:26:22.890,607,0.21830542,-1.2795869,0.49978524,-0.9236283,3.1900911,3.0960178
2026-05-10 11:26:22.900,608,0.2619665,-1.0210961,0.5512517,-2.36542295,4.5313985500000005,2.9827022999999997
2026-05-10 11:26:22.910,609,0.2619665,-1.0210961,0.5512517,-2.802497,4.9002085,2.972623
2026-05-10 11:26:22.920,610,0.22175074,-0.9290938,0.676594385,-3.8142425500000003,5.57258025,3.05069925
2026-05-10 11:26:22.930,611,0.01908648,-0.8654569666666667,0.8857020999999999,-4.985118533333334,6.2358142333333335,3.337615
2026-05-10 11:26:22.940,612,-0.11607384,-0.8290727499999999,1.0936309,-5.4089826500000004,6.2887813,3.8734965
2026-05-10 11:26:22.950,613,-0.17055872,-0.8026078,1.2370844,-5.5413113,6.200435,4.289343
2026-05-10 11:26:22.960,614,-0.10323773,-0.6961382,1.4158753,-5.5413113,6.200435,4.289343
2026-05-10 11:26:22.970,615,-0.10323772999999999,-0.6961382,1.4158753,-5.373934299999999,5.9046235,5.018869
2026-05-10 11:26:22.980,616,0.2568290125,-0.49605027500000004,1.410524425,-5.0740758249999995,5.58643915,6.0208405
2026-05-10 11:26:22.990,617,0.6551297,-0.28803509,1.3184611,-5.07300685,5.592242349999999,6.74876275
2026-05-10 11:26:23.000,618,1.4110782466666667,0.14309777333333332,1.1101257333333334,-5.590333566666666,5.974618466666667,7.3587373000000005
2026-05-10 11:26:23.010,619,2.4337397,0.8054128,0.8681604,-6.861391,6.4702845,7.253872
2026-05-10 11:26:23.020,620,2.5215039,0.850049575,0.831984515,-7.20351375,6.551415125,7.007197000000001
2026-05-10 11:26:23.030,621,2.7847965,0.9839599,0.7234568600000001,-8.229882,6.794807,6.2671719999999995
2026-05-10 11:26:23.040,622,2.7460443000000003,0.9615348,0.7132733325,-8.229882,6.794807,6.267172
2026-05-10 11:26:23.050,623,1.805532225,0.565917175,1.2118999750000001,-9.654038,6.42324805,4.9266282
2026-05-10 11:26:23.060,624,0.98127675,0.23757485,1.7410772,-10.098977,5.396650625,4.34447335
2026-05-10 11:26:23.070,625,0.44026962,-0.05963763,1.9649925999999998,-9.415113,4.4067817,4.9380817
2026-05-10 11:26:23.080,626,0.6406776249999999,-0.1917947275,1.789860575,-8.591399749999999,4.075502,6.14885495
2026-05-10 11:26:23.090,627,1.5540541,-0.0823828575,1.6463459999999999,-8.518821500000001,4.174194999999999,6.123466
2026-05-10 11:26:23.100,628,1.8688590500000002,0.06227497375,1.58349175,-8.41978525,3.9071322499999996,5.35572305
2026-05-10 11:26:23.110,629,1.5940360333333334,0.19991003333333332,1.3151579666666666,-8.204989666666668,3.044807,3.288491133333333
2026-05-10 11:26:23.120,630,0.5196035,-0.15976542,0.9986558,-8.641758,2.1178699,2.7375927
2026-05-10 11:26:23.130,631,0.36296326,-0.44526989250000004,1.18299585,-8.7213615,1.74772365,3.193908925
2026-05-10 11:26:23.140,632,0.60726102,-0.507986965,1.4907577,-8.054983675,1.43350985,3.722536475
2026-05-10 11:26:23.150,633,0.89364964,-0.49368733,1.6204604,-7.155981,1.0668762,4.132198
2026-05-10 11:26:23.160,634,1.786628625,-0.07748927850000001,1.8883876,-6.6181142,0.5831472600000001,4.00238915
2026-05-10 11:26:23.170,635,1.762618125,0.23025733650000002,1.93078345,-4.2143975,-1.326837485,2.947272
2026-05-10 11:26:23.180,636,1.5534849333333334,0.33957264666666664,1.8027271333333335,-3.6250780000000002,-1.477123,2.8268806666666664
2026-05-10 11:26:23.190,637,1.4730737,0.36361876,1.7438822,-3.4713945,-1.4633276,2.8307495
2026-05-10 11:26:23.200,638,2.4379471500000003,0.75791008,1.8003794499999999,-4.216459225,-0.243238885,2.2028182249999997
2026-05-10 11:26:23.210,639,3.4028206,1.1522014,1.8568767,-4.3870435,-0.2793945025,0.753464075
2026-05-10 11:26:23.220,640,3.3774328333333337,1.5078318666666668,2.1402672,-3.6217181000000003,-0.205810677,0.9932159666666666
2026-05-10 11:26:23.230,641,3.40385715,2.5678327,2.912792,-2.04762025,-0.1942551455,0.666453965
2026-05-10 11:26:23.240,642,3.481057,2.9165726,3.1185358,-1.2473868,-0.3633121,0.29061913
2026-05-10 11:26:23.250,643,3.49291735,2.9465439,3.101141425,0.32853097500000006,-0.67290625,-0.008895725000000004
2026-05-10 11:26:23.260,644,3.5284984,3.0364577999999995,3.0489583000000002,0.8538369,-0.7761043,-0.10873401
2026-05-10 11:26:23.270,645,3.6907032,3.04658035,2.9459035499999997,1.2783501,-0.781067575,-0.31146492000000003
2026-05-10 11:26:23.280,646,3.7096066,2.5811872,2.2548265,3.0398946000000002,-0.534736165,-1.731497475
2026-05-10 11:26:23.290,647,3.554872,2.4423071,2.091006,3.55523575,-0.23984097999999998,-2.86854665
2026-05-10 11:26:23.300,648,3.2646214,2.1458162,1.8364689333333333,3.3860769333333334,-0.44023021,-3.7280596
2026-05-10 11:26:23.310,649,3.1630504,1.9900552,1.7618101,1.8208365,0.12568553,-5.5119896
2026-05-10 11:26:23.320,650,2.911054,1.7851194750000001,1.787268925,1.8208365,0.12568553,-5.5119896
2026-05-10 11:26:23.330,651,2.001844466666667,1.0728268333333333,2.037070066666667,1.4170547000000002,0.43233988,-5.826891
2026-05-10 11:26:23.340,652,1.9252343,1.0240841,2.1237824,1.44729255,0.47891836,-5.85338715
2026-05-10 11:26:23.350,653,1.8206399,0.937325975,2.2608026,1.80235795,0.5525276050000001,-5.88022695
2026-05-10 11:26:23.360,654,1.6029289,0.3784672,2.25196065,4.683007775,0.1668807425,-5.777372625
2026-05-10 11:26:23.370,655,1.7179662,-0.52997,1.569116,6.921612333333333,-1.3159055333333332,-6.285497800000001
2026-05-10 11:26:23.380,656,1.7179662,-0.52997,1.569116,6.476393,-2.653904,-6.4150014
2026-05-10 11:26:23.390,657,1.841509975,-0.41377418250000003,1.8504281249999999,6.157063325,-2.61751935,-6.80263355
2026-05-10 11:26:23.400,658,1.9964783,-0.4206139433333333,0.4064667666666666,4.5496223,-1.8336647333333334,-8.1517934
2026-05-10 11:26:23.410,659,1.7204357750000001,-0.6680572499999999,-0.7721335125,1.5940529,-2.0996966,-7.8819942
2026-05-10 11:26:23.420,660,1.5652133,-0.7565076,-0.73010355,1.5940529,-2.0996966,-7.8819942
2026-05-10 11:26:23.430,661,1.5652133,-0.7565076,-0.73010355,1.5940529,-2.0996966,-7.8819942
2026-05-10 11:26:23.440,662,1.4058544,-0.8546637333333332,-0.6621930766666667,1.5940529,-2.0996966,-7.8819942
2026-05-10 11:26:23.450,663,0.2899712075,-1.76112405,0.426686465,-0.31192305,-1.17526654,-5.0446779500000005
2026-05-10 11:26:23.460,664,-0.5098163425,-2.648843625,0.358435555,-2.0521637925,0.954438725,0.295009725
2026-05-10 11:26:23.470,665,-0.25011622,-1.8798454333333332,0.8439110099999999,-0.6601417133333333,3.509878933333333,2.708576566666667
2026-05-10 11:26:23.480,666,-0.33044612,-1.7236981,0.92968833,-2.4344506,6.044512,3.8515053
2026-05-10 11:26:23.490,667,-0.42907991,-1.6797626,0.944750215,-2.81937215,6.447683,4.2183299
2026-05-10 11:26:23.500,668,-0.5277137,-1.6358271,0.9598121000000001,-3.5157841333333337,7.103599433333334,4.9013791
2026-05-10 11:26:23.510,669,-0.5656732499999999,-1.62174095,0.91224835,-4.138765,7.6090903,5.5338283
2026-05-10 11:26:23.520,670,-0.38941297,-1.5639327,0.86517245,-6.58077505,8.200942000000001,7.86763905
2026-05-10 11:26:23.530,671,-0.38941297,-1.5639326999999998,0.8651724499999999,-7.6778126,8.054411,8.8784685
2026-05-10 11:26:23.540,672,2.3024514,-0.8052909,1.0307918,-9.332189,6.5947485,9.1935215
2026-05-10 11:26:23.550,673,2.3024514,-0.8052909,1.0307918,-13.340228,2.5633433,7.174001
2026-05-10 11:26:23.560,674,2.0431222499999997,-0.47103359,0.7269783550000001,-4.2052344,1.479897405,5.3162839250000005
2026-05-10 11:26:23.570,675,1.2651348,0.53173834,-0.18446198,-4.898681,2.6305385,4.3066
2026-05-10 11:26:23.580,676,1.2651348,0.53173834,-0.18446198,-4.898681,2.6305385,4.3066
2026-05-10 11:26:23.590,677,1.2651348,0.53173834,-0.18446198,-4.898681,2.6305385,4.3066
2026-05-10 11:26:23.600,678,1.2139529333333334,0.45980324333333333,-0.05049075333333333,-4.898681,2.6305385,4.3066
2026-05-10 11:26:23.610,679,1.1627710666666666,0.3878681466666667,0.08348047333333333,-4.898681,2.6305385,4.3066
2026-05-10 11:26:23.620,680,1.1115892,0.31593305,0.2174517,-4.898681,2.6305385,4.3066
2026-05-10 11:26:23.630,681,0.96334887,0.014086187,1.1143333,-4.898681,2.6305385,4.3066
2026-05-10 11:26:23.640,682,1.2896077566666666,0.35331331233333335,1.1850285,-4.536132533333333,0.6890560133333334,3.2047009
2026-05-10 11:26:23.650,683,1.5096002750000002,0.75373305,0.9446740650000001,-3.4129804999999998,-0.74976072,2.195297
2026-05-10 11:26:23.660,684,1.548566,0.8216943,0.85297656,-3.349527,-0.75502944,2.105958
2026-05-10 11:26:23.670,685,2.1628396,0.95014692,0.33267186499999996,-3.7533088,-0.17944166,1.8486309
2026-05-10 11:26:23.680,686,2.502707,1.0312797,0.09884723,-5.5347447,1.1071932,1.3228287
2026-05-10 11:26:23.690,687,2.61884175,1.07936175,0.091377283,-5.5347447,1.1071932,1.3228287
2026-05-10 11:26:23.700,688,2.7349765,1.1274438,0.083907336,-6.2034893,1.3544409,1.0824533
2026-05-10 11:26:23.710,689,2.891250925,1.10270145,0.729310809,-7.837592075000001,1.566449325,0.0684551
2026-05-10 11:26:23.720,690,2.6855835999999997,1.0262794,1.4325836,-8.731402,1.2443326,-0.66355234
2026-05-10 11:26:23.730,691,2.69296205,1.0194192499999999,1.570487975,-8.829675,1.371468875,-0.5118668774999999
2026-05-10 11:26:23.740,692,2.7701006,1.1596713,2.5454839,-8.665963000000001,1.78601725,-0.20150917000000002
2026-05-10 11:26:23.750,693,3.1689855333333328,1.599016,1.8790527666666668,0.6293949333333332,-0.5042182999999999,-1.3671164100000002
2026-05-10 11:26:23.760,694,2.9996872,1.71778315,0.9647361600000001,3.42718305,-1.0663034425,-2.6351580500000003
2026-05-10 11:26:23.770,695,2.8124812,1.6887571,0.8437687,1.0521389925,0.04997641,-3.47284515
2026-05-10 11:26:23.780,696,2.8124812,1.6887571,0.8437687,-0.20250183,0.77213365,-3.9504654
2026-05-10 11:26:23.790,697,2.695157333333333,1.5824094333333332,1.2441985666666666,-0.3885103033333333,0.8969028666666666,-4.088877266666667
2026-05-10 11:26:23.800,698,1.9638951249999999,1.1847642,2.669042825,0.80523494,1.118265175,-5.41528215
2026-05-10 11:26:23.810,699,1.548001875,0.868404325,2.8527426499999997,3.262287625,0.560468865,-5.5934639
2026-05-10 11:26:23.820,700,1.4419540666666666,0.3351211666666667,2.4982961333333336,5.3123894,0.23197608,-5.46816
2026-05-10 11:26:23.830,701,1.5691768999999998,0.10990478,2.2458423333333335,6.205678,0.17862718,-5.372865133333334
2026-05-10 11:26:23.840,702,1.7572367,-0.11165286,1.9915186,6.6523223,0.15195273,-5.3252177
2026-05-10 11:26:23.850,703,1.7572367,-0.11165286,1.9915186,7.572170825,-0.124311075,-5.33999315
2026-05-10 11:26:23.860,704,1.7572367,-0.11165286,1.9915186,7.878787,-0.21639901,-5.3449183
2026-05-10 11:26:23.870,705,1.7572367,-0.11165286,1.9915186,7.878787,-0.21639901,-5.3449183
2026-05-10 11:26:23.880,706,1.7861814,-0.52391268,1.2341167666666666,9.048594,-1.8753563,-5.9192843
2026-05-10 11:26:23.890,707,2.1021957,-0.4269761,0.81675494,7.590459,-2.3846653,-6.977761
2026-05-10 11:26:23.900,708,2.2152512,-0.42295152,0.6565627,7.590459,-2.3846653,-6.977761
2026-05-10 11:26:23.910,709,2.0995736,-0.44240385,0.6847961,6.20914,-1.6585755500000001,-6.863911
2026-05-10 11:26:23.920,710,1.8364079,-0.5933069666666667,1.2073672,4.827821,-0.9324857999999999,-6.750061
2026-05-10 11:26:23.930,711,1.3100765,-0.8951132,2.2525094,4.827821,-0.9324858,-6.750061
2026-05-10 11:26:23.940,712,1.33943795,-0.8987872,2.32454105,4.827821,-0.9324858,-6.750061
2026-05-10 11:26:23.950,713,1.4275223,-0.9098092,2.540636,6.095366,-2.23866845,-6.870554
2026-05-10 11:26:23.960,714,1.4275223,-0.9098092000000001,2.540636,6.809314699999999,-3.0279064000000004,-7.036098499999999
2026-05-10 11:26:23.970,715,1.65436475,-0.77631055,2.2268069,6.8413854,-3.0211868,-7.4085736
2026-05-10 11:26:23.980,716,1.7588526,-0.6863509999999999,1.9617609,6.2270074,-2.2886066,-7.6541414
2026-05-10 11:26:23.990,717,1.7877263,-0.640891,1.8013246,6.2270074,-2.2886066,-7.6541414
2026-05-10 11:26:24.000,718,1.7327231,-0.6152391333333332,1.6599748666666667,5.890522466666667,-1.9481510666666668,-7.7013818
2026-05-10 11:26:24.010,719,1.681988425,-0.5985257749999999,1.56062455,5.5339808249999995,-1.60684285,-7.7159153499999995
2026-05-10 11:26:24.020,720,1.320564875,-0.719295025,1.255088475,4.735427325,-1.08180415,-7.56621505
2026-05-10 11:26:24.030,721,1.1106746,-0.8212064566666667,1.0203238000000001,4.726264266666667,-1.3304645,-7.335829866666667
2026-05-10 11:26:24.040,722,0.9051900549999999,-1.0100589175,0.6113161500000001,4.697401,-1.6291776,-6.9482865
2026-05-10 11:26:24.050,723,0.86852634,-1.0510979,0.5409462,4.5619415,-1.58053745,-6.7680051
2026-05-10 11:26:24.060,724,0.7243715550000001,-1.16200385,0.389656875,4.231768799999999,-1.338329425,-6.369301050000001
2026-05-10 11:26:24.070,725,0.6763199600000002,-1.1989725,0.3392271,4.1668644,-1.2738068,-6.2964935
2026-05-10 11:26:24.080,726,0.5003798150000001,-1.327668975,0.165070605,3.9059487749999997,-1.1024591,-5.99102285
2026-05-10 11:26:24.090,727,0.13003808,-1.7508644,-0.06735150000000001,3.684968275,-1.030453325,-5.74102615
2026-05-10 11:26:24.100,728,-0.18165694,-2.131161,-0.24172144,3.467882,-1.0363328,-5.503743
2026-05-10 11:26:24.110,729,-0.5961933399999999,-2.3903835,-0.38793421,3.20436995,-1.224173975,-5.1371476
2026-05-10 11:26:24.120,730,-0.8907430266666667,-2.5538279,-0.4727105,3.0474538999999994,-1.3475688000000001,-4.9173126
2026-05-10 11:26:24.130,731,-1.2034848,-2.7079017,-0.5447879,3.0474539,-1.3475688,-4.9173126
2026-05-10 11:26:24.140,732,-1.7392478,-3.1028335,-0.45133728500000003,2.56418325,-1.6032921500000001,-3.8544834999999997
2026-05-10 11:26:24.150,733,-1.8242527,-3.1813443000000006,-0.39758417,2.4717135,-1.6195563999999998,-3.559512
2026-05-10 11:26:24.160,734,-1.881192025,-3.23060015,-0.34463901,2.3948972499999996,-1.4419474,-2.87427385
2026-05-10 11:26:24.170,735,-1.9915949,-3.250250725,-0.3463616665,2.2712352,0.24713318000000004,0.7304421249999999
2026-05-10 11:26:24.180,736,-1.7291863,-3.085729,-0.582473,1.4709635,1.1925616,2.0819814
2026-05-10 11:26:24.190,737,-1.7291863,-3.085729,-0.582473,1.4709635,1.1925616,2.0819814
2026-05-10 11:26:24.200,738,-0.81620616,-2.765649,-0.43337893,-0.7721337149999999,2.6947557,3.5188128
2026-05-10 11:26:24.210,739,-0.71458435,-2.722171,-0.39487059,-1.7620409,3.3234124,4.0466766
2026-05-10 11:26:24.220,740,-0.33737738666666667,-2.501528,-0.13895119466666667,-3.1329241666666667,4.1867688,4.417981133333333
2026-05-10 11:26:24.230,741,-0.1801934325,-2.3315843000000003,0.12923010824999998,-3.8183658,4.618447,4.6036334
2026-05-10 11:26:24.240,742,-0.18473637999999998,-2.272480275,0.28991021,-4.58546,5.2036557,4.7624583
2026-05-10 11:26:24.250,743,-0.2177566,-2.1765294,0.61247474,-4.58546,5.2036557,4.7624583
2026-05-10 11:26:24.260,744,0.091057145,-2.0023882,1.1926762850000001,-4.55743645,5.7464092,6.188446750000001
2026-05-10 11:26:24.270,745,0.4549046,-1.773823,1.4867331,-3.9568796,5.4189854,6.6863785
2026-05-10 11:26:24.280,746,0.6445091333333334,-1.5804174333333334,1.1887685333333333,-3.8665224666666664,5.227377466666667,6.806260600000001
2026-05-10 11:26:24.290,747,1.4467307,-0.9653154875,0.7116878625,-3.86574615,3.96470645,7.5694984000000005
2026-05-10 11:26:24.300,748,1.7715058,-0.7634592000000001,0.8705386,-4.4215956,3.7430767999999994,7.5748816
2026-05-10 11:26:24.310,749,1.7715058,-0.7634592,0.8705386,-5.5122952,3.3922875,7.563886
2026-05-10 11:26:24.320,750,2.3170254,-0.50307816,1.2078754,-5.5122952,3.3922875,7.563886
2026-05-10 11:26:24.330,751,2.3170254,-0.50307816,1.2078754,-5.5122952,3.3922875,7.563886
2026-05-10 11:26:24.340,752,2.3169492,-0.41857626000000003,1.42549475,-7.0635110999999995,3.8672352500000002,6.9947888
2026-05-10 11:26:24.350,753,1.9336696333333332,-0.3092050366666667,2.0686370000000003,-9.109375,4.7627635,6.241668
2026-05-10 11:26:24.360,754,1.76120035,-0.314134175,2.66603975,-9.137704,4.336036075,6.0033164
2026-05-10 11:26:24.370,755,1.703697,-0.3137378,3.0506659,-8.954521,3.8841867,5.861405
2026-05-10 11:26:24.380,756,1.7417480250000001,-0.283370195,3.38356645,-7.64788,2.8483119,5.694524
2026-05-10 11:26:24.390,757,1.7544317000000003,-0.27324766,3.4945333,-7.212333,2.5030203,5.638897
2026-05-10 11:26:24.400,758,1.83208865,-0.13554145,3.425474275,-5.5088212500000004,1.4200707750000001,5.44143475
2026-05-10 11:26:24.410,759,1.8579743,-0.08963938,3.4024546,-4.940984,1.0590876,5.375614
2026-05-10 11:26:24.420,760,1.6107342500000001,0.18626086,1.9825243000000001,-4.6747993,1.4996741999999998,4.9287661499999995
2026-05-10 11:26:24.430,761,1.4134362000000003,0.24202631,1.1926916,-5.58453,3.0192015,4.158007
2026-05-10 11:26:24.440,762,1.4134362,0.24202631,1.1926916,-5.58453,3.0192015,4.158007
2026-05-10 11:26:24.450,763,1.0318285,0.056954544,1.2456825,-6.58696015,3.7009652749999997,3.7204366
2026-05-10 11:26:24.460,764,0.936152155,-0.049743756,1.325717625,-6.48967985,3.24316,3.4897967999999997
2026-05-10 11:26:24.470,765,0.9325137133333333,-0.053356772000000004,1.3689823333333333,-6.3529987,2.7733283000000006,3.2852333
2026-05-10 11:26:24.480,766,0.98902106,0.010549396,1.402155,-5.83964285,2.2280546500000002,3.16519825
2026-05-10 11:26:24.490,767,0.98902106,0.010549396,1.402155,-5.326287,1.682781,3.0451632
2026-05-10 11:26:24.500,768,0.9890210600000001,0.010549396,1.4021549999999998,-5.211189666666667,1.5815301000000002,3.020728633333333
2026-05-10 11:26:24.510,769,1.102411815,0.1392306865,1.28438895,-4.316793499999999,0.6904304475,2.81986855
2026-05-10 11:26:24.520,770,1.389516975,0.46266419000000003,0.81269985,-4.089322774999999,-0.07097490549999999,2.535205275
2026-05-10 11:26:24.530,771,1.8655204250000001,0.565932425,1.444230575,-6.68198765,1.88337392,1.6186401750000001
2026-05-10 11:26:24.540,772,1.9656024,0.5954006,2.2644613,-7.6526146,3.2449162,1.155299
2026-05-10 11:26:24.550,773,2.4067867,0.63326865,2.4518502,-5.790697,1.5418239,0.9257663
2026-05-10 11:26:24.560,774,2.57620215,0.6809543650000001,2.3463868,-5.075717375,0.4748332,0.7590000875
2026-05-10 11:26:24.570,775,2.6147259,0.84373824,2.9205971,-4.3983822749999995,-0.2763019875,1.00911123
2026-05-10 11:26:24.580,776,2.581614,1.1545186,3.9860864,-3.8657586999999993,-0.16849699999999998,1.4048882666666664
2026-05-10 11:26:24.590,777,2.6297265750000003,1.2783368,4.155059725,-2.4144448575,-0.39920045,1.9685896
2026-05-10 11:26:24.600,778,2.7740643,1.6497914,4.6619797,-0.28955013,-0.816116,2.7119362
2026-05-10 11:26:24.610,779,3.468754225,1.8274389500000001,4.481679525,2.5424212175,-1.17114325,2.8924469999999998
2026-05-10 11:26:24.620,780,5.552824,2.3603816,3.9407790000000005,5.7863192,-1.3080152,2.2397375
2026-05-10 11:26:24.630,781,5.552824,2.3603816,3.940779,7.920669575,-1.4906639,0.15806140000000002
2026-05-10 11:26:24.640,782,3.519275475,1.8131393,0.8297740925,4.383110875,-1.004873345,-4.112802975
2026-05-10 11:26:24.650,783,2.9471231,1.6353189333333333,0.52155483,0.4445572,0.34972036,-4.394412
2026-05-10 11:26:24.660,784,2.9603555,1.6306438,0.64412296,0.138475525,0.549396945,-4.476077
2026-05-10 11:26:24.670,785,2.9603555,1.6306438,0.64412296,-0.7797695,1.1484267,-4.721072
2026-05-10 11:26:24.680,786,2.849724125,1.643038,1.004464165,-0.8131762,0.9557368749999999,-5.38477715
2026-05-10 11:26:24.690,787,2.5307980666666663,1.5396020666666665,1.7113194333333335,-0.6261369,0.6366743,-5.8059688
2026-05-10 11:26:24.700,788,2.3897736,1.4858184,2.0046902,-0.6261369,0.6366743,-5.8059688
2026-05-10 11:26:24.710,789,2.3897736,1.4858184,2.0046902,-0.46525025999999997,0.4881576875,-5.8678952749999995
2026-05-10 11:26:24.720,790,2.3897736,1.4858184,2.0046902,0.01740966,0.04260785,-6.053674699999999
2026-05-10 11:26:24.730,791,2.251564325,1.3278061,2.25723535,0.01740966,0.04260785,-6.0536747
2026-05-10 11:26:24.740,792,1.9801155,1.0281698,2.648874,1.4637859,-0.7119634,-6.550308
2026-05-10 11:26:24.750,793,1.7042459,0.7897412,2.7854064,2.4376578,-0.6688974499999999,-6.717990400000001
2026-05-10 11:26:24.760,794,1.3923068,0.33965397,2.6273789499999998,4.495166425,0.619341015,-6.398508175
2026-05-10 11:26:24.770,795,1.4400231,-0.21800053,2.2606807,5.5255814,1.235475,-6.031531
2026-05-10 11:26:24.780,796,1.4910626,-0.39349857,2.171834,5.769622200000001,1.1640801,-5.9924355
2026-05-10 11:26:24.790,797,1.4910626,-0.39349857,2.171834,6.013663,1.0926852,-5.95334
2026-05-10 11:26:24.800,798,1.4847208,-0.5429889999999999,2.091555,6.013663,1.0926852,-5.95334
2026-05-10 11:26:24.810,799,1.478379,-0.69247943,2.011276,6.3490661500000005,0.81718497625,-5.94914025
2026-05-10 11:26:24.820,800,1.478379,-0.69247943,2.011276,7.3552756,-0.009315695,-5.936541
2026-05-10 11:26:24.830,801,1.4694354,-0.9709509433333334,1.8679749333333333,7.5131334,-0.2237293966666667,-5.9861739
2026-05-10 11:26:24.840,802,1.22129075,-1.3063567,1.8011722,8.261493999999999,-1.4953981500000002,-6.43057835
2026-05-10 11:26:24.850,803,0.96563566,-1.297179275,1.736168375,8.588116249999999,-2.169144225,-6.36483425
2026-05-10 11:26:24.860,804,0.9948142,-1.2722083,1.7200394,8.639009,-2.30342,-6.319554
2026-05-10 11:26:24.870,805,1.3891054,-0.9362742000000001,1.6280828000000003,8.078387,-2.2585216,-6.3730044
2026-05-10 11:26:24.880,806,1.4513041750000002,-0.8508423749999999,1.6270766,8.078387,-2.2585216,-6.3730044
2026-05-10 11:26:24.890,807,1.4616706375000001,-0.8366037374999999,1.6269089,8.078387,-2.2585216,-6.3730044
2026-05-10 11:26:24.900,808,1.4720371,-0.8223651,1.6267412,8.078387,-2.2585216,-6.3730044
2026-05-10 11:26:24.910,809,1.4720371,-0.8223651,1.6267412,7.727751,-2.1491766,-6.498079
2026-05-10 11:26:24.920,810,1.4720371,-0.8223651,1.6267412,7.727751,-2.1491766,-6.498079
2026-05-10 11:26:24.930,811,1.5800922,-0.48393068,1.6494865,7.7277510000000005,-2.1491766,-6.498079
2026-05-10 11:26:24.940,812,1.5800922,-0.48393068,1.6494865,7.124674,-1.9405662,-6.6449924
2026-05-10 11:26:24.950,813,1.57404,-0.3227474825,1.703834125,6.729406,-1.8772270500000001,-6.67477205
2026-05-10 11:26:24.960,814,1.6505536,-0.0814986625,1.8052272999999999,6.3120704,-1.9350684,-6.645756
2026-05-10 11:26:24.970,815,1.7438822,0.014269125,1.8418757999999997,6.071695299999999,-2.0793853,-6.5660377
2026-05-10 11:26:24.980,816,1.7438822,0.014269125,1.8418758,6.08521045,-2.1744511749999997,-6.63842545
2026-05-10 11:26:24.990,817,1.9135263,0.08921252,1.8988913,6.0897155,-2.2061398,-6.6625547
2026-05-10 11:26:25.000,818,1.9135263,0.08921252,1.8988913,6.2346943,-2.3945917333333333,-6.814558233333333
2026-05-10 11:26:25.010,819,2.0501196,0.1654669675,1.6194999499999998,6.3164993250000006,-2.691128625,-7.00830425
2026-05-10 11:26:25.020,820,1.943406,0.15409435,1.2023262,6.2376976,-2.9886582,-7.157966
2026-05-10 11:26:25.030,821,1.882045825,0.15385044,0.6966108,5.56754065,-2.963918175,-7.034495
2026-05-10 11:26:25.040,822,1.891147,0.10555494,0.5661306,5.344155,-2.9556715,-6.993337999999999
2026-05-10 11:26:25.050,823,1.883616075,0.09232246075,0.556816025,4.364059625,-2.638365125,-6.8699432
2026-05-10 11:26:25.060,824,1.828140175,-0.04507884725,0.5798508975000001,2.5972464,-1.67644335,-6.674542625
2026-05-10 11:26:25.070,825,1.59669375,-0.66368199,0.6752375675,2.163264675,-1.0377836999999999,-6.805382625
2026-05-10 11:26:25.080,826,1.5302722,-0.8166939599999999,0.6795518399999999,2.118786,-0.8904888,-6.860017
2026-05-10 11:26:25.090,827,1.5302722,-0.81669396,0.67955184,2.118786,-0.8904888,-6.860017
2026-05-10 11:26:25.100,828,1.1215289,-1.4997827,0.7593736,2.118786,-0.8904888,-6.860017
2026-05-10 11:26:25.110,829,0.614746265,-2.2415942,0.5636304624999999,2.76030915,-0.9625327125,-7.056219025
2026-05-10 11:26:25.120,830,0.11006742666666665,-2.760222,0.4305942333333333,3.3552283666666667,-0.31357746666666664,-6.841334233333334
2026-05-10 11:26:25.130,831,-0.56143516,-3.3029366,0.2950172,3.5703547,0.3387248,-6.4698267
2026-05-10 11:26:25.140,832,-0.56143516,-3.3029366000000002,0.2950172,3.5703547000000007,0.3387248,-6.4698267
2026-05-10 11:26:25.150,833,-1.3498806399999999,-3.6221168749999997,-0.3213145,3.026073675,0.5900576500000001,-4.004450875
2026-05-10 11:26:25.160,834,-1.0781320333333333,-3.5542115333333335,-1.1710439666666668,-0.9663888000000002,1.647554366666667,-0.58581977
2026-05-10 11:26:25.170,835,-0.6630265,-3.3828804,-1.3555669000000001,-3.804316,2.912758,0.23044892000000003
2026-05-10 11:26:25.180,836,-0.6630265,-3.3828804,-1.3555669000000001,-3.804316,2.912758,0.23044892000000003
2026-05-10 11:26:25.190,837,-0.6855888,-3.3392802,-1.20973525,-5.2387805,3.8310413,0.3622431
2026-05-10 11:26:25.200,838,-1.107427425,-3.081658525,-0.18903541975000002,-6.1946316,4.2406263,1.3807082
2026-05-10 11:26:25.210,839,-1.1150193375,-2.9632674999999997,0.11518964774999998,-5.744805700000001,3.8949147749999997,1.7909805749999999
2026-05-10 11:26:25.220,840,-0.96688575,-2.7147925,0.5696064,-4.395328,2.8577802,3.0217977
2026-05-10 11:26:25.230,841,-0.54686120625,-2.426772675,0.45373073999999997,-2.5478044,2.2865067750000003,4.461950675
2026-05-10 11:26:25.240,842,-0.047990605,-2.0470097,0.19427963,-2.4130704,2.9698741,4.9971833
2026-05-10 11:26:25.250,843,-0.080919355,-1.9441175666666666,0.047726363333333334,-2.4130704,2.9698741,4.9971833
2026-05-10 11:26:25.260,844,-0.09738373,-1.8926715,-0.02555027,-2.4130704,2.9698741,4.9971833
2026-05-10 11:26:25.270,845,-0.1937613,-1.8440710500000002,-0.14287419499999998,-2.74278495,3.1151073250000003,5.071365224999999
2026-05-10 11:26:25.280,846,-0.29013887,-1.7954706,-0.26019812,-3.7319286,3.550807,5.293911
2026-05-10 11:26:25.290,847,-0.37843669,-1.7709977333333333,-0.3487805333333333,-3.7319286,3.5508070000000003,5.293911
2026-05-10 11:26:25.300,848,-0.4225856,-1.7587613,-0.39307174,-5.2442018,3.6496145,5.754808649999999
2026-05-10 11:26:25.310,849,-0.03234943500000001,-1.8044346,-0.10390851,-8.0161555,3.5681403,6.4046166499999995
2026-05-10 11:26:25.320,850,0.5222408224999999,-1.86594725,0.44499549,-10.184650999999999,3.1945961499999997,6.719288649999999
2026-05-10 11:26:25.330,851,1.0153031,-1.9134652999999997,1.2242178,-11.093466,3.0013337,6.8450503
2026-05-10 11:26:25.340,852,1.077197,-2.039997,1.7192466,-11.73579,2.3328943,6.881397
2026-05-10 11:26:25.350,853,1.077197,-2.039997,1.7192466,-11.896714875,1.546939825,6.97749375
2026-05-10 11:26:25.360,854,1.2425725333333333,-2.0219472,2.3707479333333334,-11.743476999999999,0.8476264046666667,7.1411674666666665
2026-05-10 11:26:25.370,855,1.3252603,-2.0129223,2.6964986,-10.655551249999998,-0.7124215965,7.595040325
2026-05-10 11:26:25.380,856,1.4099756,-1.976654925,2.82960095,-10.430829,-0.9408852,7.6585703
2026-05-10 11:26:25.390,857,1.6641215,-1.8678528,3.228908,-10.430829,-0.9408852,7.6585703
2026-05-10 11:26:25.400,858,2.1762651666666666,-1.6467829999999999,3.6937320000000002,-8.090757,-2.1775818,7.6549053
2026-05-10 11:26:25.410,859,2.539340175,-1.2089120125,3.74293195,-6.7996935,-2.392224675,7.387231575
2026-05-10 11:26:25.420,860,2.3017807,-0.63302475,2.9893818,-6.369339,-2.4637723,7.298007
2026-05-10 11:26:25.430,861,2.0291429,-0.40618226,2.2347646,-2.6743681,-1.92338555,6.3894212
2026-05-10 11:26:25.440,862,2.0291429,-0.40618226,2.2347646,-2.7482828,-1.4720325,6.439181333333334
2026-05-10 11:26:25.450,863,1.8332777,-0.30007848,1.6622311,-4.077984,-0.53038377,6.7798405
2026-05-10 11:26:25.460,864,1.7799819000000001,-0.317457555,1.49813615,-4.077984,-0.53038377,6.7798405
2026-05-10 11:26:25.470,865,1.726716575,-0.36541768,1.324955325,-4.35596575,-0.311808545,6.840583475
2026-05-10 11:26:25.480,866,1.8051866333333333,-0.5545445533333333,1.4001427,-6.878648000000001,1.8308140666666668,7.133786000000001
2026-05-10 11:26:25.490,867,2.1648520500000004,-0.6941868499999999,1.7464434,-7.4830992,2.2878431,6.895294
2026-05-10 11:26:25.500,868,1.706044675,-0.293553715,1.816051075,-4.87543,0.23594672500000002,5.6199219
2026-05-10 11:26:25.510,869,1.6553406,-0.16452178,1.5566761,-4.36260875,1.170188725,6.05245295
2026-05-10 11:26:25.520,870,1.6553406,-0.16452178,1.5566761,-4.551557,1.6282613,6.1437774
2026-05-10 11:26:25.530,871,1.8183378,-0.1307698225,1.4899039749999998,-4.7728811,1.923080125,6.2173484750000005
2026-05-10 11:26:25.540,872,3.1453512,0.689339025,1.676561225,-5.077931975,1.525865015,2.95082285
2026-05-10 11:26:25.550,873,3.7293638999999996,1.3681286000000001,2.2719619,-5.1871114,0.9691886,0.65469481
2026-05-10 11:26:25.560,874,3.3566898,1.81480105,2.36971155,-3.6115880750000002,0.73651259,-0.5057964125000001
2026-05-10 11:26:25.570,875,3.0045961500000002,1.9751153000000001,2.4527041,-2.6054165,0.27282769,-0.486783235
2026-05-10 11:26:25.580,876,4.477111100000001,2.9211867,2.5642350666666665,4.513632333333334,-1.0300715,-0.18880826333333334
2026-05-10 11:26:25.590,877,4.592463,2.3290536,2.032374675,5.387296825,-1.049504675,-2.4507150625
2026-05-10 11:26:25.600,878,4.457943,2.2381794,1.9764568,5.551543,-1.0412198,-3.4478762
2026-05-10 11:26:25.610,879,3.8121738,2.0035925,1.4810619,5.442452766666666,-1.0425942666666665,-3.7594684
2026-05-10 11:26:25.620,880,3.8121738,2.0035925,1.4810619,5.2242723,-1.0453432,-4.3826528
2026-05-10 11:26:25.630,881,3.8121738,2.0035925,1.4810619,5.2242723,-1.0453432,-4.3826528
2026-05-10 11:26:25.640,882,3.1694531,1.8617549,1.3145279,3.1984904,-0.6612616,-5.3418636
2026-05-10 11:26:25.650,883,3.1694531,1.8617549,1.3145279,2.9083294333333334,-0.49678614,-5.4577244
2026-05-10 11:26:25.660,884,2.9091942,1.7608955,1.6267412,2.3280075,-0.16783522,-5.689446
2026-05-10 11:26:25.670,885,2.7044413499999997,1.65936515,1.892229275,2.149902,0.12664000250000002,-5.8445295
2026-05-10 11:26:25.680,886,1.9035257,1.0457927,2.851142,4.127922,0.30848694,-6.0597835
2026-05-10 11:26:25.690,887,1.9035257,1.0457927,2.851142,4.127922,0.30848694,-6.059783499999999
2026-05-10 11:26:25.700,888,1.76479805,0.4167011465,2.6349099000000002,7.0439635,-0.32704197999999995,-6.02504025
2026-05-10 11:26:25.710,889,1.804007725,-0.12168393024999999,2.106190025,8.809517,-0.7122688775,-6.03557775
2026-05-10 11:26:25.720,890,1.8565108,-0.6378421,1.2523292,9.972986,-1.2111931,-6.5889454
2026-05-10 11:26:25.730,891,1.656910675,-0.7177553,0.896485275,9.399498000000001,-1.508913525,-6.667899725
2026-05-10 11:26:25.740,892,1.3409319,-0.7666301,0.4681371,7.679034,-2.4020748,-6.9047627
2026-05-10 11:26:25.750,893,1.3337160333333333,-0.74418975,0.4883008666666666,7.157762466666667,-2.446362666666667,-6.858540233333334
2026-05-10 11:26:25.760,894,1.3718331000000001,-0.62668287,0.796311725,6.4025549,-2.44876795,-6.80732925
2026-05-10 11:26:25.770,895,1.5294795,-0.40880433,1.5993617,4.413844925,-2.24374615,-6.702184275
2026-05-10 11:26:25.780,896,1.5294795,-0.40880433,1.5993617,4.2455134,-2.1951442,-6.6952357
2026-05-10 11:26:25.790,897,1.6742441000000001,-0.2554620633333333,1.9843027666666666,4.1194718,-2.2950207333333332,-6.700020966666666
2026-05-10 11:26:25.800,898,1.8954154,-0.21647604,2.4168484,4.1766387,-2.447508,-6.832527799999999
2026-05-10 11:26:25.810,899,1.3053047850000001,-0.45124585500000003,2.48482475,4.902575225,-1.9832886250000001,-7.106730075
2026-05-10 11:26:25.820,900,1.2309865,-0.13525179,1.6748538,5.001459,-1.0256428,-5.8975987
2026-05-10 11:26:25.830,901,1.2309865,-0.13525179,1.6748538,5.001459,-1.0256428,-5.8975987
2026-05-10 11:26:25.840,902,1.564710225,-0.1102503375,1.5831412249999999,4.84515395,-1.193477925,-5.8858391999999995
2026-05-10 11:26:25.850,903,1.7880312,-0.1349469,1.5441755,4.881119,-1.4408784,-6.303213
2026-05-10 11:26:25.860,904,1.4403686,-0.29426514666666664,1.4015045666666666,4.9962670000000005,-1.4241814000000002,-6.494719
2026-05-10 11:26:25.870,905,1.0936004,-0.48447952,1.217693,5.053841,-1.4158329,-6.590472
2026-05-10 11:26:25.880,906,1.0936004,-0.48447952,1.217693,5.1206543,-1.360626,-6.525873300000001
2026-05-10 11:26:25.890,907,0.7646787925,-0.68046655,0.90314725,5.2008683,-0.970054035,-6.1405319
2026-05-10 11:26:25.900,908,0.60607195,-0.8240725000000001,0.6826618,5.1772356,-0.53969944,-5.745493
2026-05-10 11:26:25.910,909,0.5645298875,-0.9463814749999999,0.5759177575,5.120845075,-0.4224896725,-5.53138475
2026-05-10 11:26:25.920,910,0.17614847666666666,-1.7389428666666664,-0.31776246666666663,4.295197,0.08353582,-4.3256386000000004
2026-05-10 11:26:25.930,911,-0.1600703075,-2.41835765,-1.1444264999999998,2.982244,0.3923282,-3.1987958
2026-05-10 11:26:25.940,912,-0.1589117,-2.4656928,-1.1622019,2.982244,0.3923282,-3.1987958
2026-05-10 11:26:25.950,913,-0.289834,-2.8457756,-1.0142665,1.10938212,1.0115928133333334,-2.451096833333333
2026-05-10 11:26:25.960,914,-0.7055137375,-2.92421015,-0.694446025,0.9208793525,0.70795466,-1.61279885
2026-05-10 11:26:25.970,915,-0.8105350733333333,-3.0410920666666663,-0.5102126800000001,1.6021977000000003,0.6070982666666667,-0.43615778666666666
2026-05-10 11:26:25.980,916,-0.80468106,-3.0433483,-0.5110054,1.7708983,0.6093381,-0.22403483
2026-05-10 11:26:25.990,917,-0.80468106,-3.0433483,-0.5110054,1.7708983,0.6093381,-0.22403483
2026-05-10 11:26:26.000,918,-0.7718743,-2.9792593000000003,-0.5735091,1.947947433333333,0.6278676799999999,0.03721187000000001
2026-05-10 11:26:26.010,919,-0.6147004975,-2.8499529,-0.7811583825,2.0806069999999997,0.747928135,0.57245711
2026-05-10 11:26:26.020,920,-0.2872118825,-2.194991,-1.2299955624999999,-2.2888739,3.0300443,1.98954995
2026-05-10 11:26:26.030,921,-0.4968582575,-2.0516594,-0.653559475,-5.2361841,3.97535825,2.5563946499999997
2026-05-10 11:26:26.040,922,-0.5148267566666668,-2.0797962666666665,-0.23107039333333335,-6.3931629,4.204483666666667,2.9077185333333335
2026-05-10 11:26:26.050,923,-0.5124079,-2.0998178,-0.069638215,-7.1701837,4.3627996,3.175583
2026-05-10 11:26:26.060,924,-0.5124079,-2.0998178,-0.069638215,-7.1701837,4.3627996,3.175583
2026-05-10 11:26:26.070,925,-0.6042832333333333,-2.139901266666667,0.7147165283333333,-7.558999233333334,4.533943866666667,3.7096828
2026-05-10 11:26:26.080,926,-0.6502209,-2.159943,1.1068939,-7.5810665,4.537049,4.13250335
2026-05-10 11:26:26.090,927,-0.68214345,-2.1245751999999998,1.1893987,-7.408726,4.454582,4.288274
2026-05-10 11:26:26.100,928,-0.72742045,-1.99600065,1.22437025,-7.408726,4.454582,4.288274
2026-05-10 11:26:26.110,929,-0.7407749,-1.9027939,1.176837,-6.7987776,3.755447,4.9554915
2026-05-10 11:26:26.120,930,-0.57131386,-1.7061971,1.0665866,-6.681746066666666,3.4157549333333335,5.2421401
2026-05-10 11:26:26.130,931,0.02786748,-1.5696038,0.837061,-7.8328195,1.6818647,7.9195623
2026-05-10 11:26:26.140,932,1.2064728,-1.3992889,0.72687167,-7.8328195,1.6818647,7.9195623
2026-05-10 11:26:26.150,933,1.2064728,-1.3992889,0.72687167,-8.316777,1.6442965,8.093659
2026-05-10 11:26:26.160,934,1.2064728,-1.3992889,0.72687167,-8.316777,1.6442965,8.093659
2026-05-10 11:26:26.170,935,1.5913732999999999,-0.27657098,1.487495335,-7.9443785,0.36667185000000013,6.379647500000001
2026-05-10 11:26:26.180,936,1.9762738,0.84614694,2.248119,-7.57198,-0.9109528,4.665636
2026-05-10 11:26:26.190,937,1.9762738,0.84614694,2.248119,-7.57198,-0.9109528,4.665636
2026-05-10 11:26:26.200,938,2.943891466666667,1.4104887133333335,2.766645133333333,-5.9654555333333334,-1.4888822,5.257055433333334
2026-05-10 11:26:26.210,939,4.024747,2.0090806,3.2793987,-4.6966376,-1.9062049,5.5413113
2026-05-10 11:26:26.220,940,4.37130685,2.23270645,3.400777725,-4.6966376,-1.9062049,5.5413113
2026-05-10 11:26:26.230,941,5.522700133333333,3.3313732,3.036254533333333,1.2168945333333332,-3.3789502666666666,1.9345593333333333
2026-05-10 11:26:26.240,942,5.5089495,3.60078955,2.3566772,2.2766184999999997,-3.3505576500000003,-0.095485875
2026-05-10 11:26:26.250,943,5.649964,3.425017,1.9853597,1.8060231,-2.6787968500000003,-0.86032735
2026-05-10 11:26:26.260,944,5.649964,3.425017,1.9853597,1.395827,-2.1427627,-1.3274102
2026-05-10 11:26:26.270,945,5.62837725,3.2588334999999997,1.96584635,0.4280638,-0.7276932,-2.4326181
2026-05-10 11:26:26.280,946,5.563617,2.760283,1.9073063,0.42806380000000005,-0.7276932,-2.4326181
2026-05-10 11:26:26.290,947,5.563617,2.760283,1.9073063,0.4280638,-0.7276932,-2.4326181
2026-05-10 11:26:26.300,948,4.724239,1.9357227,2.3433075,-0.33857206,0.6646214,-3.9438987
2026-05-10 11:26:26.310,949,4.172133466666667,1.6533079,2.4270115,-0.27158050666666667,0.9026552,-4.362545166666666
2026-05-10 11:26:26.320,950,3.4376851250000002,1.366939575,2.420293725,-0.07005860825,1.32966275,-4.690185325
2026-05-10 11:26:26.330,951,3.0665812,1.2736719,2.4795349,0.23609942,1.6513215,-4.6998444
2026-05-10 11:26:26.340,952,3.0935341999999997,1.4760312500000001,2.60798755,1.61558585,2.082859575,-5.42146715
2026-05-10 11:26:26.350,953,2.867464066666667,1.5186658666666668,2.5903949666666666,2.4974208333333334,3.6851973333333334,-6.244875333333333
2026-05-10 11:26:26.360,954,2.85903885,0.63433585,2.60576175,5.22908285,4.24589525,-6.69668645
2026-05-10 11:26:26.370,955,3.0533488,-0.59198576,1.9471868,7.62856145,4.198820275,-7.1113112
2026-05-10 11:26:26.380,956,2.9981424666666663,-1.00310732,1.5219588000000002,9.331577333333334,3.0545297666666666,-7.511453533333333
2026-05-10 11:26:26.390,957,2.8894674499999997,-1.3962705,1.06143395,10.165562,1.094976,-8.045553
2026-05-10 11:26:26.400,958,2.7675395,-1.6400956500000001,0.7584589,10.08080375,0.405919965,-8.2582485
2026-05-10 11:26:26.410,959,2.6377301,-1.7553158,0.7357289250000001,9.903118,-0.24755314,-8.490492
2026-05-10 11:26:26.420,960,2.608079,-1.7749816,0.7465069999999999,9.753685,-0.6713409,-8.651837
2026-05-10 11:26:26.430,961,2.608079,-1.7749816,0.746507,9.753685,-0.6713409,-8.651837
2026-05-10 11:26:26.440,962,2.571293325,-1.79095815,0.7789326750000001,9.612957000000002,-1.00082635,-8.7659925
2026-05-10 11:26:26.450,963,2.4609363,-1.8388878,0.8762097,9.472229,-1.3303118,-8.880148
2026-05-10 11:26:26.460,964,1.932353575,-1.8772894,1.195725275,8.695361,-2.3484714,-9.130298
2026-05-10 11:26:26.470,965,1.7936868499999998,-1.7004956249999998,1.197844275,6.734942,-1.8132007,-8.634886
2026-05-10 11:26:26.480,966,1.7688633666666667,-1.2972911333333332,1.2957463333333334,6.296748,-1.6267341000000002,-8.510015000000001
2026-05-10 11:26:26.490,967,1.773945,-1.2170222,1.331846,5.42036,-1.2538009,-8.260273
2026-05-10 11:26:26.500,968,1.82059405,-0.906302875,2.0508666,4.6296714,-1.631468375,-7.7924263
2026-05-10 11:26:26.510,969,2.0118247499999997,-0.4704390125,2.84577575,6.1730986,-2.2881484,-7.6808667
2026-05-10 11:26:26.520,970,2.023167,-0.5177741,2.5265498,6.8397055,-2.017077,-7.8212132
2026-05-10 11:26:26.530,971,1.906117375,-0.45033115,2.036109625,6.40580025,-1.700343375,-7.68101965
2026-05-10 11:26:26.540,972,1.6512548,-0.2438557,0.9283469,5.1040845,-0.7501425,-7.260439
2026-05-10 11:26:26.550,973,1.6512548,-0.2438557,0.9283468999999999,5.1040845,-0.7501425,-7.260439000000001
2026-05-10 11:26:26.560,974,1.6135697,-0.14659391,0.81413287,4.43442345,-0.33116531000000005,-7.061984
2026-05-10 11:26:26.570,975,1.6135697,-0.14659391,0.81413287,3.7647624,0.08781188,-6.863529
2026-05-10 11:26:26.580,976,1.562301425,-0.14389559,0.832563805,3.51029885,0.24446063499999998,-6.78510925
2026-05-10 11:26:26.590,977,1.545212,-0.14299615,0.8387074499999999,2.7469082,0.7144068999999998,-6.54985
2026-05-10 11:26:26.600,978,1.545212,-0.14299615,0.83870745,2.7469082,0.7144069,-6.54985
2026-05-10 11:26:26.610,979,1.52007335,-0.14659392,0.8415125025,2.5536457500000003,0.7665595000000001,-6.4561585
2026-05-10 11:26:26.620,980,1.4446574,-0.15738723,0.84992766,2.3603833,0.8187121,-6.362467
2026-05-10 11:26:26.630,981,1.2742206666666667,-0.4680151166666667,0.8408010999999999,2.0175351666666668,0.77198096,-5.868327666666667
2026-05-10 11:26:26.640,982,1.26107965,-0.75480017,0.8254444750000001,2.08457765,0.93622735,-5.58277365
2026-05-10 11:26:26.650,983,1.0615864,-1.5205766,0.7283961,2.5289821,1.0209085500000001,-5.59934365
2026-05-10 11:26:26.660,984,1.0615864,-1.5205766,0.7283961,2.877328,1.0430524,-5.635843
2026-05-10 11:26:26.670,985,0.6328418499999999,-1.9506423333333334,0.46165291333333336,3.7113118333333333,0.7367034833333334,-5.556379433333333
2026-05-10 11:26:26.680,986,-0.22464725,-2.8107738,-0.07183346,4.673157425,0.21880429175,-5.2575645
2026-05-10 11:26:26.690,987,-0.29355370000000003,-2.8597096000000004,-0.12397065,4.8322496,0.021227567,-5.056437
2026-05-10 11:26:26.700,988,-1.05961975,-3.506271575,-1.008503975,4.6186757499999995,-0.767132225,-3.63949695
2026-05-10 11:26:26.710,989,-1.20007,-3.5901482,-1.1922647,3.7763309000000005,-0.6793203375,-2.777375225
2026-05-10 11:26:26.720,990,-1.0492685,-3.5728914999999994,-1.1920818,0.9318749299999999,0.6585127,-0.6198755
2026-05-10 11:26:26.730,991,-1.0492685,-3.5728915,-1.1920818,0.5217552725,0.77927315,-0.38427241
2026-05-10 11:26:26.740,992,-0.8153117933333333,-3.5145953,-1.0919946666666667,-0.7086037,1.1415545,0.32253686
2026-05-10 11:26:26.750,993,-0.32947046,-2.6343002,-0.3644115,-3.3609805,1.3697126,2.2930355
2026-05-10 11:26:26.760,994,-0.2894985875,-2.4184337,-0.28771494000000003,-3.8997638,1.3756685,2.8889344
2026-05-10 11:26:26.770,995,-0.26702778,-2.0821031,-0.16257045,-4.1279219000000005,1.4128549499999998,3.07112505
2026-05-10 11:26:26.780,996,-0.24267676333333332,-1.9770463333333332,-0.12795462666666665,-4.898019333333333,1.6796249333333335,3.5905133
2026-05-10 11:26:26.790,997,-0.23507468,-2.0567055,-0.1604362,-5.168989,1.7944167,3.7591121
2026-05-10 11:26:26.800,998,-0.23507468,-2.0567055,-0.1604362,-5.3143749,1.8689040749999999,3.84016625
2026-05-10 11:26:26.810,999,-0.20812188,-1.5833851,0.54936135,-7.533801,2.5969408,5.287497
2026-05-10 11:26:26.820,1000,-0.12512925,-1.4934407,0.93163973,-7.533801,2.5969408,5.287497
2026-05-10 11:26:26.830,1001,-0.12512925,-1.4934407,0.93163973,-7.533801,2.5969408,5.287497
