timestamp,id,acc_x,acc_y,acc_z,gyro_x,gyro_y,gyro_z
2026-05-10 11:25:51.210,1,-0.09457869,0.55600804,1.1850692,-0.8020661,-0.97433007,-1.2846496
2026-05-10 11:25:51.220,2,-0.09457869,0.55600804,1.1850692,-0.8202393,-0.9901361850000001,-1.3225996
2026-05-10 11:25:51.230,3,-0.09457869,0.55600804,1.1850692,-0.8384125,-1.0059423,-1.3605496
2026-05-10 11:25:51.240,4,-0.16165577,0.59198576,1.2987953,-0.8384125,-1.0059423,-1.3605496
2026-05-10 11:25:51.250,5,-0.16165577,0.59198576,1.2987953,-0.8384125,-1.0059423,-1.3605496
2026-05-10 11:25:51.260,6,-0.16165577,0.59198576,1.2987953,-0.8384125,-1.0059423,-1.3605496
2026-05-10 11:25:51.270,7,-0.16165577,0.59198576,1.2987953,-0.8384125,-1.0059423,-1.3605496
2026-05-10 11:25:51.280,8,-0.16165577,0.59198576,1.2987953,-0.8384125,-1.0059423,-1.3605496
2026-05-10 11:25:51.290,9,-0.16165577,0.59198576,1.2987953,-0.8384125,-1.0059423,-1.3605496
2026-05-10 11:25:51.300,10,-0.16165577,0.59198576,1.2987953,-0.8384125,-1.0059423,-1.3605496
2026-05-10 11:25:51.310,11,-0.16165577,0.59198576,1.2987953,-0.8384125,-1.0059423,-1.3605496
2026-05-10 11:25:51.320,12,-0.16165577,0.59198576,1.2987953,-0.8384125,-1.0059423,-1.3605496
2026-05-10 11:25:51.330,13,-0.16165577,0.59198576,1.2987953,-0.8384125,-1.0059423,-1.3605496
2026-05-10 11:25:51.340,14,-0.16165577,0.59198576,1.2987953,-0.8384125,-1.0059423,-1.3605496
2026-05-10 11:25:51.350,15,-0.16165577,0.59198576,1.2987953,-0.8384125,-1.0059423,-1.3605496
2026-05-10 11:25:51.360,16,-0.16165577,0.59198576,1.2987953,-0.8384125,-1.0059423,-1.3605496
2026-05-10 11:25:51.370,17,-0.16165577,0.59198576,1.2987953,-0.8384125,-1.0059423,-1.3605496
2026-05-10 11:25:51.380,18,-0.16165577,0.59198576,1.2987953,-0.8384125,-1.0059423,-1.3605496
2026-05-10 11:25:51.390,19,-0.16165577,0.59198576,1.2987953,-0.8384125,-1.0059423,-1.3605496
2026-05-10 11:25:51.400,20,-0.16165577,0.59198576,1.2987953,-0.8384125,-1.0059423,-1.3605496
2026-05-10 11:25:51.410,21,-0.16165577,0.59198576,1.2987953,-0.8384125,-1.0059423,-1.3605496
2026-05-10 11:25:51.420,22,-0.5139934,0.69680893,1.4968556,-0.12186762,-0.9114109,-1.4246905
2026-05-10 11:25:51.430,23,-0.5139934,0.69680893,1.4968556,-0.12186762,-0.9114109,-1.4246905
2026-05-10 11:25:51.440,24,-0.5139934,0.69680893,1.4968556,-0.12186762,-0.9114109,-1.4246904999999999
2026-05-10 11:25:51.450,25,-0.5139934,0.69680893,1.4968556,-0.12186762,-0.9114109,-1.4246905
2026-05-10 11:25:51.460,26,-0.5139934,0.69680893,1.4968556,-0.12186762,-0.9114109,-1.4246905
2026-05-10 11:25:51.470,27,-0.5139934,0.69680893,1.4968556,-0.12186762,-0.9114109,-1.4246905
2026-05-10 11:25:51.480,28,-0.5139934,0.69680893,1.4968556,-0.12186762,-0.9114109,-1.4246904999999999
2026-05-10 11:25:51.490,29,-0.5139934,0.69680893,1.4968556,-0.12186762,-0.9114109,-1.4246905
2026-05-10 11:25:51.500,30,-0.5139934,0.69680893,1.4968556,-0.12186762,-0.9114109,-1.4246905
2026-05-10 11:25:51.510,31,-0.5139934,0.69680893,1.4968556,-0.12186762,-0.9114109,-1.4246905
2026-05-10 11:25:51.520,32,-0.5139934,0.69680893,1.4968556,-0.12186762,-0.9114109,-1.4246905
2026-05-10 11:25:51.530,33,-0.5139934,0.69680893,1.4968556,-0.12186762,-0.9114109,-1.4246905
2026-05-10 11:25:51.540,34,-0.5139934,0.69680893,1.4968556,-0.12186762,-0.9114109,-1.4246904999999999
2026-05-10 11:25:51.550,35,-0.5139934,0.69680893,1.4968556,-0.12186762,-0.9114109,-1.4246905
2026-05-10 11:25:51.560,36,-0.5139934,0.69680893,1.4968556,-0.12186762,-0.9114109,-1.4246905
2026-05-10 11:25:51.570,37,-0.5139934,0.69680893,1.4968556,-0.12186762,-0.9114109,-1.4246905
2026-05-10 11:25:51.580,38,-0.5139934,0.69680893,1.4968556,-0.12186762,-0.9114109,-1.4246904999999999
2026-05-10 11:25:51.590,39,-0.5139934,0.69680893,1.4968556,-0.12186762,-0.9114109,-1.4246905
2026-05-10 11:25:51.600,40,-0.5139934,0.69680893,1.4968556,-0.12186762,-0.9114109,-1.4246905
2026-05-10 11:25:51.610,41,-0.5139934,0.69680893,1.4968556,-0.12186762,-0.9114109,-1.4246905
2026-05-10 11:25:51.620,42,-0.5139934,0.69680893,1.4968556,-0.12186762,-0.9114109,-1.4246904999999999
2026-05-10 11:25:51.630,43,-0.5139934,0.69680893,1.4968556,-0.12186762,-0.9114109,-1.4246905
2026-05-10 11:25:51.640,44,-0.5139934,0.69680893,1.4968556,-0.12186762,-0.9114109,-1.4246905
2026-05-10 11:25:51.650,45,-0.5139934,0.69680893,1.4968556,0.5148067,-0.77778417,-1.3990341
2026-05-10 11:25:51.660,46,-0.5139934,0.69680893,1.4968556,0.5148067,-0.77778417,-1.3990341
2026-05-10 11:25:51.670,47,-0.5139934,0.69680893,1.4968556,0.5148067,-0.77778417,-1.3990341
2026-05-10 11:25:51.680,48,-0.5139934,0.69680893,1.4968556,0.5148067,-0.77778417,-1.3990341
2026-05-10 11:25:51.690,49,-0.5139934,0.69680893,1.4968556,0.5148067,-0.77778417,-1.3990341
2026-05-10 11:25:51.700,50,-0.5139934,0.69680893,1.4968556,0.5148067,-0.77778417,-1.3990341
2026-05-10 11:25:51.710,51,-0.5139934,0.69680893,1.4968556,0.5148067,-0.77778417,-1.3990341
2026-05-10 11:25:51.720,52,-0.5139934,0.69680893,1.4968556,0.5148067,-0.77778417,-1.3990341
2026-05-10 11:25:51.730,53,-0.5139934,0.69680893,1.4968556,0.5148067,-0.77778417,-1.3990341
2026-05-10 11:25:51.740,54,-0.5139934,0.69680893,1.4968556,0.5148067,-0.77778417,-1.3990341
2026-05-10 11:25:51.750,55,-0.5139934,0.69680893,1.4968556,0.5148067,-0.77778417,-1.3990341
2026-05-10 11:25:51.760,56,-0.5139934,0.69680893,1.4968556,0.5148067,-0.77778417,-1.3990341
2026-05-10 11:25:51.770,57,-0.5139934,0.69680893,1.4968556,0.5148067,-0.77778417,-1.3990341
2026-05-10 11:25:51.780,58,-0.5139934,0.69680893,1.4968556,0.5148067,-0.77778417,-1.3990341
2026-05-10 11:25:51.790,59,-0.5139934,0.69680893,1.4968556,0.5148067,-0.77778417,-1.3990341
2026-05-10 11:25:51.800,60,-0.5139934,0.69680893,1.4968556,0.5148067,-0.77778417,-1.3990341
2026-05-10 11:25:51.810,61,-0.5139934,0.69680893,1.4968556,0.5148067,-0.77778417,-1.3990341
2026-05-10 11:25:51.820,62,-0.5139934,0.69680893,1.4968556,0.5148067,-0.77778417,-1.3990341
2026-05-10 11:25:51.830,63,-0.5139934,0.69680893,1.4968556,0.5148067,-0.77778417,-1.3990341
2026-05-10 11:25:51.840,64,-0.5139934,0.69680893,1.4968556,0.5148067,-0.77778417,-1.3990341
2026-05-10 11:25:51.850,65,-0.5139934,0.69680893,1.4968556,0.5148067,-0.77778417,-1.3990341
2026-05-10 11:25:51.860,66,-0.5139934,0.69680893,1.4968556,0.5148067,-0.77778417,-1.3990341
2026-05-10 11:25:51.870,67,-0.5139934,0.69680893,1.4968556,0.5148067,-0.77778417,-1.3990341
2026-05-10 11:25:51.880,68,-0.5139934,0.69680893,1.4968556,0.5148067,-0.77778417,-1.3990341
2026-05-10 11:25:51.890,69,-0.5139934,0.69680893,1.4968556,0.5148067,-0.77778417,-1.3990341
2026-05-10 11:25:51.900,70,-0.41042029,0.601986345,1.352396,0.5148067,-0.77778417,-1.3990341
2026-05-10 11:25:51.910,71,-0.30684718,0.50716376,1.2079364,0.5148067,-0.77778417,-1.3990341
2026-05-10 11:25:51.920,72,0.000365875,0.3509961,0.90395516,0.5148067,-0.77778417,-1.3990341
2026-05-10 11:25:51.930,73,0.00036587500000000004,0.3509961,0.9039551600000001,0.5148067,-0.77778417,-1.3990341
2026-05-10 11:25:51.940,74,0.000365875,0.3509961,0.90395516,0.5148067,-0.77778417,-1.3990341
2026-05-10 11:25:51.950,75,0.000365875,0.3509961,0.90395516,0.5148067,-0.77778417,-1.3990341
2026-05-10 11:25:51.960,76,0.000365875,0.3509961,0.90395516,0.5148067,-0.77778417,-1.3990341
2026-05-10 11:25:51.970,77,0.00036587500000000004,0.3509961,0.9039551600000001,0.5148067,-0.77778417,-1.3990341
2026-05-10 11:25:51.980,78,0.000365875,0.3509961,0.90395516,0.5148067,-0.77778417,-1.3990341
2026-05-10 11:25:51.990,79,0.000365875,0.3509961,0.90395516,0.5148067,-0.77778417,-1.3990341
2026-05-10 11:25:52.000,80,0.000365875,0.3509961,0.90395516,0.5148067,-0.77778417,-1.3990341
2026-05-10 11:25:52.010,81,0.000365875,0.3509961,0.90395516,0.5148067,-0.77778417,-1.3990341
2026-05-10 11:25:52.020,82,0.00036587500000000004,0.3509961,0.9039551600000001,0.5148067,-0.77778417,-1.3990341
2026-05-10 11:25:52.030,83,0.000365875,0.3509961,0.90395516,0.5148067,-0.77778417,-1.3990341
2026-05-10 11:25:52.040,84,0.000365875,0.3509961,0.90395516,0.5148067,-0.77778417,-1.3990341
2026-05-10 11:25:52.050,85,0.000365875,0.3509961,0.90395516,0.5148067,-0.77778417,-1.3990341
2026-05-10 11:25:52.060,86,0.000365875,0.3509961,0.90395516,0.5148067,-0.77778417,-1.3990341
2026-05-10 11:25:52.070,87,0.00036587500000000004,0.3509961,0.9039551600000001,0.5148067,-0.77778417,-1.3990341
2026-05-10 11:25:52.080,88,0.000365875,0.3509961,0.90395516,0.5148067,-0.77778417,-1.3990341
2026-05-10 11:25:52.090,89,0.000365875,0.3509961,0.90395516,0.5148067,-0.77778417,-1.3990341
2026-05-10 11:25:52.100,90,0.000365875,0.3509961,0.90395516,0.5148067,-0.77778417,-1.3990341
2026-05-10 11:25:52.110,91,0.000365875,0.3509961,0.90395516,0.5148067,-0.77778417,-1.3990341
2026-05-10 11:25:52.120,92,0.00036587500000000004,0.3509961,0.9039551600000001,1.0560333,-1.3953689,-1.1937834
2026-05-10 11:25:52.130,93,0.000365875,0.3509961,0.90395516,1.0560333,-1.3953689,-1.1937834
2026-05-10 11:25:52.140,94,0.000365875,0.3509961,0.90395516,1.0560333,-1.3953689,-1.1937834
2026-05-10 11:25:52.150,95,0.000365875,0.3509961,0.90395516,1.0560333,-1.3953689,-1.1937834
2026-05-10 11:25:52.160,96,0.000365875,0.3509961,0.90395516,1.0560333,-1.3953689,-1.1937834
2026-05-10 11:25:52.170,97,0.00036587500000000004,0.3509961,0.9039551600000001,1.0560333,-1.3953689,-1.1937834
2026-05-10 11:25:52.180,98,0.000365875,0.3509961,0.90395516,1.0560333,-1.3953689,-1.1937834
2026-05-10 11:25:52.190,99,0.000365875,0.3509961,0.90395516,1.0560333,-1.3953689,-1.1937834
2026-05-10 11:25:52.200,100,0.000365875,0.3509961,0.90395516,1.0560333,-1.3953689,-1.1937834
2026-05-10 11:25:52.210,101,0.000365875,0.3509961,0.90395516,1.0560333,-1.3953689,-1.1937834
2026-05-10 11:25:52.220,102,0.00036587500000000004,0.3509961,0.9039551600000001,1.0560333,-1.3953689,-1.1937834
2026-05-10 11:25:52.230,103,0.000365875,0.3509961,0.90395516,1.0560333,-1.3953689,-1.1937834
2026-05-10 11:25:52.240,104,0.000365875,0.3509961,0.90395516,1.0560333,-1.3953689,-1.1937834
2026-05-10 11:25:52.250,105,0.000365875,0.3509961,0.90395516,1.0560333,-1.3953689,-1.1937834
2026-05-10 11:25:52.260,106,0.000365875,0.3509961,0.90395516,1.0560333,-1.3953689,-1.1937834
2026-05-10 11:25:52.270,107,0.00036587500000000004,0.3509961,0.9039551600000001,1.0560333,-1.3953689,-1.1937834
2026-05-10 11:25:52.280,108,0.000365875,0.3509961,0.90395516,1.0560333,-1.3953689,-1.1937834
2026-05-10 11:25:52.290,109,0.02058046975,0.256691805,0.7227098525,1.0560333,-1.3953689,-1.1937834
2026-05-10 11:25:52.300,110,0.027318668,0.22525704,0.66229475,1.0560333,-1.3953689,-1.1937834
2026-05-10 11:25:52.310,111,0.027318668,0.22525704,0.66229475,1.0560333,-1.3953689,-1.1937834
2026-05-10 11:25:52.320,112,0.027318668,0.22525704,0.66229475,1.0560333,-1.3953689,-1.1937834
2026-05-10 11:25:52.330,113,0.027318668,0.22525704,0.66229475,1.0560333,-1.3953689,-1.1937834
2026-05-10 11:25:52.340,114,0.027318668,0.22525704,0.66229475,1.0560333,-1.3953689,-1.1937834
2026-05-10 11:25:52.350,115,0.027318668,0.22525704,0.66229475,1.0560333,-1.3953689,-1.1937834
2026-05-10 11:25:52.360,116,0.027318668,0.22525704,0.66229475,1.0560333,-1.3953689,-1.1937834
2026-05-10 11:25:52.370,117,0.027318668,0.22525704,0.66229475,1.2304354,-1.6904168,-1.1236867
2026-05-10 11:25:52.380,118,0.027318668,0.22525704,0.66229475,1.2304354,-1.6904168000000002,-1.1236867
2026-05-10 11:25:52.390,119,0.0144215735,0.283614105,0.6901469825,1.42331605,-1.147510325,-1.2681181
2026-05-10 11:25:52.400,120,0.010122542,0.30306646,0.69943106,1.4876096,-0.9665415,-1.3162619
2026-05-10 11:25:52.410,121,0.010122542,0.30306646,0.69943106,1.4876096,-0.9665415,-1.3162619
2026-05-10 11:25:52.420,122,0.010122542,0.30306646,0.6994310599999999,1.4876096,-0.9665415,-1.3162619
2026-05-10 11:25:52.430,123,0.010122542,0.30306646,0.69943106,1.4876096,-0.9665415,-1.3162619
2026-05-10 11:25:52.440,124,0.010122542,0.30306646,0.69943106,1.4876096,-0.9665415,-1.3162619
2026-05-10 11:25:52.450,125,0.010122542,0.30306646,0.69943106,1.4876096,-0.9665415,-1.3162619
2026-05-10 11:25:52.460,126,0.010122542,0.30306646,0.69943106,1.4876096,-0.9665415,-1.3162619
2026-05-10 11:25:52.470,127,0.06347931133333333,0.3822784066666666,0.6790843400000001,1.4876096,-0.9665415,-1.3162619
2026-05-10 11:25:52.480,128,0.17019285,0.5407023,0.6383909,1.202411825,-1.01178375,-1.713591575
2026-05-10 11:25:52.490,129,0.17019285,0.5407023,0.6383909,1.1073459,-1.0268645,-1.8460348
2026-05-10 11:25:52.500,130,0.17019285,0.5407023,0.6383909,1.1073459,-1.0268645,-1.8460348
2026-05-10 11:25:52.510,131,0.17019285,0.5407023,0.6383909,1.1073459,-1.0268645,-1.8460348
2026-05-10 11:25:52.520,132,0.17019284999999998,0.5407023,0.6383909,1.1073459,-1.0268645,-1.8460348
2026-05-10 11:25:52.530,133,0.17019285,0.5407023,0.6383909,1.1073459,-1.0268645,-1.8460348
2026-05-10 11:25:52.540,134,0.17019285,0.5407023,0.6383909,1.1073459,-1.0268645,-1.8460348
2026-05-10 11:25:52.550,135,0.17019285,0.5407023,0.6383909,1.1073459,-1.0268645,-1.8460348
2026-05-10 11:25:52.560,136,0.17019285,0.5407023,0.6383909,1.1073459,-1.0268645,-1.8460348
2026-05-10 11:25:52.570,137,0.24452646,0.3784367,0.819316,-0.04520403,-2.9011517,-2.4165828
2026-05-10 11:25:52.580,138,0.24452646,0.3784367,0.819316,-0.04520403,-2.9011517,-2.4165828
2026-05-10 11:25:52.590,139,0.24452646,0.3784367,0.819316,-0.04520403,-2.9011517,-2.4165828
2026-05-10 11:25:52.600,140,0.24452646,0.3784367,0.819316,-0.04520403,-2.9011517,-2.4165828
2026-05-10 11:25:52.610,141,0.24452646,0.3784367,0.819316,-0.04520403,-2.9011517,-2.4165828
2026-05-10 11:25:52.620,142,0.24452646,0.3784367,0.819316,-0.04520403,-2.9011517,-2.4165828
2026-05-10 11:25:52.630,143,0.24452646,0.3784367,0.819316,-0.3294854475,-4.064391725,-2.4237987
2026-05-10 11:25:52.640,144,0.1881359775,0.302517635,1.1836819,-0.42424592,-4.4521384,-2.426204
2026-05-10 11:25:52.650,145,0.07250423,0.36654576999999994,1.5717989999999997,0.11407909,-5.2280903,-2.597399
2026-05-10 11:25:52.660,146,0.07250423,0.36654577,1.571799,0.11407909,-5.2280903,-2.597399
2026-05-10 11:25:52.670,147,0.07250423,0.36654577,1.571799,0.11407909,-5.2280903,-2.597399
2026-05-10 11:25:52.680,148,0.07250423,0.36654577,1.571799,0.11407909,-5.2280903,-2.597399
2026-05-10 11:25:52.690,149,0.07250423,0.36654577,1.571799,0.58291817,-5.3727126,-2.8684704
2026-05-10 11:25:52.700,150,0.07250423,0.36654576999999994,1.5717989999999997,0.58291817,-5.3727126,-2.8684704
2026-05-10 11:25:52.710,151,0.07250423,0.36654577,1.571799,0.58291817,-5.3727126,-2.8684704
2026-05-10 11:25:52.720,152,-0.17964463,0.37252176,1.0975641,0.58291817,-5.3727126,-2.8684704
2026-05-10 11:25:52.730,153,-0.17964463,0.37252176,1.0975641,0.9214393233333333,-5.5197275333333335,-3.1441743333333334
2026-05-10 11:25:52.740,154,-0.17964463,0.37252176,1.0975641,1.0906999,-5.593235,-3.2820263
2026-05-10 11:25:52.750,155,-0.17964463,0.37252176,1.0975641,1.0906999,-5.593235,-3.2820263
2026-05-10 11:25:52.760,156,-0.3293637325,0.48109514,0.863815675,1.008805775,-5.217667325,-3.1554244750000002
2026-05-10 11:25:52.770,157,-0.4598439,0.7042484,0.8451711999999999,0.8183048999999999,-3.5258123,-2.523433333333333
2026-05-10 11:25:52.780,158,-0.4598439,0.7042484,0.8451712,0.84589565,-3.2432363,-2.3973405
2026-05-10 11:25:52.790,159,-0.40520656,0.6463182,0.66607547,0.84589565,-3.2432363,-2.3973405
2026-05-10 11:25:52.800,160,-0.40520656,0.6463182,0.66607547,0.563599545,-3.2808809500000002,-2.2090413499999997
2026-05-10 11:25:52.810,161,-0.40520656,0.6463182,0.66607547,0.28130344,-3.3185256,-2.0207422
2026-05-10 11:25:52.820,162,-0.40520656000000005,0.6463182,0.66607547,0.28130344,-3.3185255999999996,-2.0207422
2026-05-10 11:25:52.830,163,-0.40520656,0.6463182,0.66607547,0.28130344,-3.3185256,-2.0207422
2026-05-10 11:25:52.840,164,-0.3406702833333333,0.5525729,0.48950011666666665,0.28130344,-3.3185255999999996,-2.0207422
2026-05-10 11:25:52.850,165,-0.21159773,0.3650823,0.13634941,0.28130344,-3.3185256,-2.0207422
2026-05-10 11:25:52.860,166,-0.19885307000000002,0.31392077,0.122873015,0.046120325000000004,-3.4119878999999997,-1.96316815
2026-05-10 11:25:52.870,167,-0.18610841,0.26275924,0.10939662,-0.18906279,-3.5054502,-1.9055941
2026-05-10 11:25:52.880,168,-0.18610841,0.26275924,0.10939662,-0.18906279,-3.5054502,-1.9055941
2026-05-10 11:25:52.890,169,-0.14799644,0.12561709,0.3146525,-1.0557660224999998,-1.5009340949999999,-1.7447839
2026-05-10 11:25:52.900,170,-0.14799644,0.12561709,0.3146525,-1.3446671,-0.83276206,-1.6911805
2026-05-10 11:25:52.910,171,-0.14799644,0.12561709,0.3146525,-1.3446671,-0.83276206,-1.6911805
2026-05-10 11:25:52.920,172,-0.14799644,0.12561709,0.3146525,-1.3446671,-0.83276206,-1.6911805
2026-05-10 11:25:52.930,173,-0.14799644,0.12561709,0.3146525,-1.3446671,-0.83276206,-1.6911805
2026-05-10 11:25:52.940,174,-0.14799644,0.12561709,0.3146525,-1.3446671,-0.83276206,-1.6911805
2026-05-10 11:25:52.950,175,-0.129611225,0.20281670999999998,0.262362865,-1.3446671,-0.83276206,-1.6911805
2026-05-10 11:25:52.960,176,-0.11122601,0.28001633,0.21007323,-1.3446671,-0.83276206,-1.6911805
2026-05-10 11:25:52.970,177,-0.11122601,0.28001633,0.21007323,-1.8887954,1.2145529,-1.5893186
2026-05-10 11:25:52.980,178,-0.11122601,0.28001633,0.21007323,-1.8887954,1.2145529,-1.5893185999999997
2026-05-10 11:25:52.990,179,-0.11122601,0.28001633,0.21007323,-1.8887954,1.2145529,-1.5893186
2026-05-10 11:25:53.000,180,-0.11122601,0.28001633,0.21007323,-1.8887954,1.2145529,-1.5893186
2026-05-10 11:25:53.010,181,-0.08762706,0.37130213,0.32239684,-1.919758625,1.353982875,-1.564960375
2026-05-10 11:25:53.020,182,-0.08762706000000002,0.37130212999999995,0.32239684,-2.0126483,1.7722728000000003,-1.4918857
2026-05-10 11:25:53.030,183,-0.24202631249999998,0.5471508575,0.263811115,-2.372524325,2.2558489500000003,-1.40495185
2026-05-10 11:25:53.040,184,-0.29349273,0.6057671,0.24428254,-3.0230193,2.1623104,-1.4127786
2026-05-10 11:25:53.050,185,-0.2686742,0.34934965,0.35130098,-3.4747543,1.6626225,-1.5460999
2026-05-10 11:25:53.060,186,-0.2686742,0.34934965,0.35130098,-3.4747542999999994,1.6626225000000001,-1.5460999
2026-05-10 11:25:53.070,187,-0.2686742,0.34934965,0.35130098,-3.4747543,1.6626225,-1.5460999
2026-05-10 11:25:53.080,188,-0.2686742,0.34934965,0.35130098,-3.4747543,1.6626225,-1.5460999
2026-05-10 11:25:53.090,189,-0.2686742,0.34934965,0.35130098,-3.4747543,1.6626225,-1.5460999
2026-05-10 11:25:53.100,190,-0.2686742,0.34934965,0.35130098,-4.0798163,1.7597499999999997,-1.4266758
2026-05-10 11:25:53.110,191,-0.2686742,0.34934965,0.35130098,-4.0798163,1.75975,-1.4266758
2026-05-10 11:25:53.120,192,-0.2686742,0.34934965,0.35130098,-4.0798163,1.75975,-1.4266758
2026-05-10 11:25:53.130,193,-0.21031715,-0.10021924999999998,0.68772302,-4.0798163,1.75975,-1.4266758
2026-05-10 11:25:53.140,194,-0.19086480000000003,-0.25007555,0.7998637,-4.0798163,1.7597499999999997,-1.4266758
2026-05-10 11:25:53.150,195,-0.19812131,-0.30867654,1.226657,-4.5824056,1.5216653,-0.86620694
2026-05-10 11:25:53.160,196,-0.19812131,-0.30867654,1.226657,-4.5824056,1.5216653,-0.86620694
2026-05-10 11:25:53.170,197,-0.145663985,-0.169003758,1.304999975,-4.367228300000001,1.10627695,-0.51778467
2026-05-10 11:25:53.180,198,-0.09598121,-0.03235961066666667,1.3129831,-3.7032686666666663,0.7990117333333333,-0.0584903508
2026-05-10 11:25:53.190,199,-0.07988271,0.012683666,1.3039175,-3.4788775,0.8530733,-0.0030543262
2026-05-10 11:25:53.200,200,-0.07988271,0.012683666,1.3039175,-3.4788775,0.8530733,-0.0030543262
2026-05-10 11:25:53.210,201,-0.07988271,0.012683666,1.3039175,-3.4788775,0.8530733,-0.0030543262
2026-05-10 11:25:53.220,202,0.09811547999999999,0.13043444,1.3253822,-1.5525141,1.1488848,-0.4914411
2026-05-10 11:25:53.230,203,0.09811548,0.13043444,1.3253822,-1.5525141,1.1488848,-0.4914411
2026-05-10 11:25:53.240,204,0.09811548,0.13043444,1.3253822,-1.5525141,1.1488848,-0.4914411
2026-05-10 11:25:53.250,205,0.09811548,0.13043444,1.3253822,-1.5525141,1.1488848,-0.4914411
2026-05-10 11:25:53.260,206,0.09811547999999999,0.13043444,1.3253822,-1.5525141,1.1488848,-0.4914411
2026-05-10 11:25:53.270,207,0.09811548,0.13043444,1.3253822,-1.5525141,1.1488848,-0.4914411
2026-05-10 11:25:53.280,208,0.09811548,0.13043444,1.3253822,-1.5525141,1.1488848,-0.4914411
2026-05-10 11:25:53.290,209,0.09811548,0.13043444,1.3253822,-0.25778514,0.37400225,-1.1917981
2026-05-10 11:25:53.300,210,0.09811548,0.13043444,1.3253822,-0.25778514,0.37400225,-1.1917981
2026-05-10 11:25:53.310,211,0.3816889333333333,0.02370057,1.1688080666666667,0.8608109533333334,-1.1594731833333334,-1.9290106999999999
2026-05-10 11:25:53.320,212,0.3919131,0.008110229,1.109577,1.420109,-1.9262109,-2.297617
2026-05-10 11:25:53.330,213,0.3919131,0.008110229,1.109577,1.420109,-1.9262109,-2.297617
2026-05-10 11:25:53.340,214,0.3919131,0.008110229,1.109577,1.420109,-1.9262109,-2.297617
2026-05-10 11:25:53.350,215,0.3919131,0.008110229,1.109577,1.420109,-1.9262109,-2.297617
2026-05-10 11:25:53.360,216,0.3919131,0.008110229,1.109577,1.420109,-1.9262109,-2.297617
2026-05-10 11:25:53.370,217,0.3919131,0.008110229,1.109577,1.420109,-1.9262109,-2.297617
2026-05-10 11:25:53.380,218,0.3641066,0.005853999933333333,1.01709191,1.420109,-1.9262109,-2.297617
2026-05-10 11:25:53.390,219,0.3084936,0.0013415418,0.83212173,1.420109,-1.9262109,-2.297617
2026-05-10 11:25:53.400,220,0.3084936,0.0013415418,0.83212173,1.420109,-1.9262109,-2.297617
2026-05-10 11:25:53.410,221,0.3084936,0.0013415418,0.83212173,1.420109,-1.9262109,-2.297617
2026-05-10 11:25:53.420,222,0.3084936,0.0013415418,0.83212173,1.420109,-1.9262109,-2.297617
2026-05-10 11:25:53.430,223,0.21848835,0.023248308449999998,0.7026477074999999,1.699465325,-2.47381335,-2.43918505
2026-05-10 11:25:53.440,224,0.18848659999999998,0.030550564,0.6594897,1.7925841,-2.6563475,-2.4863744
2026-05-10 11:25:53.450,225,0.1884866,0.030550564,0.6594897,1.77028745,-3.0905199999999997,-2.4710263
2026-05-10 11:25:53.460,226,0.2224215075,0.0300627305,0.5964524874999999,1.7479908,-3.5246925,-2.4556782
2026-05-10 11:25:53.470,227,0.6442449,0.18037638,0.18842563,1.4863878,-4.490776,-2.4292583
2026-05-10 11:25:53.480,228,0.6442449,0.18037638,0.18842563,1.4863878,-4.490776,-2.4292583
2026-05-10 11:25:53.490,229,0.6442449,0.18037638,0.18842563,1.4863878,-4.490776,-2.4292583
2026-05-10 11:25:53.500,230,0.6442449,0.18037638,0.18842563,1.4863878,-4.490776,-2.4292583
2026-05-10 11:25:53.510,231,0.6442449,0.18037638,0.18842563,1.4863878,-4.490776,-2.4292583
2026-05-10 11:25:53.520,232,0.6442449,0.18037638,0.18842563,1.4863878,-4.490776,-2.4292583
2026-05-10 11:25:53.530,233,0.6442449,0.18037638,0.18842563,1.4863878,-4.490776,-2.4292583
2026-05-10 11:25:53.540,234,0.6442449,0.18037638,0.18842563,1.4863878,-4.490776,-2.4292583
2026-05-10 11:25:53.550,235,0.6429643,0.15415533,0.116836086,0.5859725,-5.105917,-3.568064
2026-05-10 11:25:53.560,236,0.6429643,0.15415533,0.116836086,0.5859725,-5.105917,-3.568064
2026-05-10 11:25:53.570,237,0.6429643,0.15415533,0.116836086,0.5859725,-5.105917,-3.568064
2026-05-10 11:25:53.580,238,0.6429643,0.15415533,0.116836086,0.5859725,-5.105917,-3.568064
2026-05-10 11:25:53.590,239,0.6429643,0.15415533,0.116836086,0.5859725,-5.105917,-3.568064
2026-05-10 11:25:53.600,240,0.6429643,0.15415533,0.116836086,0.28293243333333334,-4.513326833333333,-3.6759835333333335
2026-05-10 11:25:53.610,241,0.2492066,0.033386093000000006,0.0831755855,-0.429781875,-3.039856275,-3.80477425
2026-05-10 11:25:53.620,242,-0.14491700000000002,0.0196657815,0.17345524499999998,-1.0089966750000001,-1.87604355,-3.0949869999999997
2026-05-10 11:25:53.630,243,0.07616298,0.039758418,0.056771606,-1.4576772,-1.2939653,-1.9984456
2026-05-10 11:25:53.640,244,0.474326445,-0.0071650522500000015,0.071772479,-1.7151569,-0.93722,-1.5790867
2026-05-10 11:25:53.650,245,0.6070476,-0.022806209000000004,0.07677277,-1.7151569,-0.93722,-1.5790867000000002
2026-05-10 11:25:53.660,246,0.7012909,-0.029651120500000003,0.1018352075,-2.382527125,-0.6136141625,-1.407548025
2026-05-10 11:25:53.670,247,0.9840208,-0.050185855,0.17702252,-2.6422975,-0.75609845,-1.5448782
2026-05-10 11:25:53.680,248,0.9840208,-0.050185855,0.17702252,-2.6422975,-0.75609845,-1.5448782
2026-05-10 11:25:53.690,249,1.07591645,-0.0497285125,0.32514091,-2.7470609,-1.203557225,-1.8708510999999999
2026-05-10 11:25:53.700,250,1.1678121,-0.04927117,0.4732593,-2.8518243,-1.651016,-2.196824
2026-05-10 11:25:53.710,251,1.0919844749999998,0.0403682075,0.8036445,-2.56991,-2.352442,-2.7429376
2026-05-10 11:25:53.720,252,1.1905572,0.28105298,1.3345291999999997,-2.0066924,-3.2181909999999996,-2.9400944999999994
2026-05-10 11:25:53.730,253,1.889881575,0.49632467,1.3149090499999998,-1.022932025,-4.30595095,-3.2547281249999997
2026-05-10 11:25:53.740,254,2.1229897,0.5680819,1.308369,-0.6950119,-4.6685376,-3.359606
2026-05-10 11:25:53.750,255,2.1229897,0.5680819,1.308369,-0.5975789,-4.8138472,-3.5721871
2026-05-10 11:25:53.760,256,2.1229897,0.5680819,1.308369,-0.3052799,-5.249776,-4.2099304
2026-05-10 11:25:53.770,257,2.1229897,0.5680819,1.308369,-0.3052799,-5.249776,-4.2099304
2026-05-10 11:25:53.780,258,2.1229897,0.5680819,1.308369,-0.3052799,-5.249776,-4.2099304
2026-05-10 11:25:53.790,259,2.1229897,0.5680819,1.308369,-0.3052799,-5.249776,-4.2099304
2026-05-10 11:25:53.800,260,2.1229897,0.5680819,1.308369,-0.3052799,-5.249776,-4.2099304
2026-05-10 11:25:53.810,261,2.177886225,0.579271575,1.252740775,-0.418557225,-5.23011375,-4.3230933
2026-05-10 11:25:53.820,262,2.4347762250000002,0.78022845,1.3039633,-0.7583892,-5.171127,-4.662582
2026-05-10 11:25:53.830,263,2.4655097,0.8360244,1.3766657,-3.0908253,-3.7920988,-5.4550266
2026-05-10 11:25:53.840,264,2.4655097,0.8360244,1.3766657,-3.0908253,-3.7920988,-5.4550266
2026-05-10 11:25:53.850,265,2.4581617500000004,0.85459255,1.5375896999999998,-3.0908253,-3.7920988,-5.4550266
2026-05-10 11:25:53.860,266,2.314891,0.9439575,3.0905464,-3.3336444,-3.0567696,-5.661041
2026-05-10 11:25:53.870,267,2.3346889999999996,1.0622571,3.803067466666667,-3.3336443999999994,-3.0567696000000004,-5.661041
2026-05-10 11:25:53.880,268,2.344588,1.1214069,4.159328,-3.3336444,-3.0567696,-5.661041
2026-05-10 11:25:53.890,269,2.3337338,1.17799555,4.4091902,-2.1894174499999997,-3.12999715,-5.7752727
2026-05-10 11:25:53.900,270,2.3228796,1.2345842,4.6590524,-1.0451905,-3.2032247,-5.8895044
2026-05-10 11:25:53.910,271,2.2285649999999997,1.3168654,4.7682861333333335,0.41671189999999997,-3.2877277,-6.006587
2026-05-10 11:25:53.920,272,2.06524245,1.366466825,4.72681525,1.7417676500000001,-3.2022701000000002,-6.111745075
2026-05-10 11:25:53.930,273,2.0265207,1.3692871,4.694786,1.9398025,-3.1597004,-6.127284
2026-05-10 11:25:53.940,274,1.5723479,1.4327055,4.215551,2.8385382,-2.588847,-5.977469
2026-05-10 11:25:53.950,275,1.5723478999999998,1.4327055,4.215551,2.8385382,-2.588847,-5.977469
2026-05-10 11:25:53.960,276,1.5723479,1.4327055,4.215551,2.8385382,-2.588847,-5.977469
2026-05-10 11:25:53.970,277,1.5441145333333335,1.5620424,4.493107666666667,3.958865,-2.581822,-5.511532
2026-05-10 11:25:53.980,278,1.5986909,1.5503954,4.5995975,3.958865,-2.581822,-5.511532
2026-05-10 11:25:53.990,279,1.5986909,1.5503954,4.5995975,3.958865,-2.581822,-5.511532
2026-05-10 11:25:54.000,280,1.5986909,1.5503954,4.5995975,3.958865,-2.581822,-5.511532
2026-05-10 11:25:54.010,281,1.5986909,1.5503954,4.5995975,5.3243012,-3.1334333,-5.604078
2026-05-10 11:25:54.020,282,1.6790614333333334,1.4338031666666666,4.8430265,5.631668366666666,-3.2195144333333334,-5.645871333333333
2026-05-10 11:25:54.030,283,1.6075023,1.139700675,4.8032375,7.169038349999999,-3.35922445,-5.7310615
2026-05-10 11:25:54.040,284,1.5077709,0.98999685,4.601122,8.091674,-3.3267722,-5.732665
2026-05-10 11:25:54.050,285,1.5077709,0.9899968500000002,4.601122,8.091674,-3.3267722,-5.732665
2026-05-10 11:25:54.060,286,1.5077709,0.98999685,4.601122,8.091674,-3.3267722,-5.732665
2026-05-10 11:25:54.070,287,1.7344304,0.6905891,3.489228,9.283319,-2.9701796,-5.8745384
2026-05-10 11:25:54.080,288,1.7344304,0.6905891,3.489228,9.283319,-2.9701796,-5.8745384
2026-05-10 11:25:54.090,289,1.7344304,0.6905891,3.489228,9.283319,-2.9701796,-5.8745384
2026-05-10 11:25:54.100,290,1.7557733,0.576619,3.1306703,9.264993,-2.9816332,-5.9724293
2026-05-10 11:25:54.110,291,1.7557733,0.576619,3.1306703,9.264993,-2.9816332,-5.9724293
2026-05-10 11:25:54.120,292,1.7557733,0.576619,3.1306703,9.264993,-2.9816332,-5.9724293
2026-05-10 11:25:54.130,293,1.7437601999999999,0.40831652,2.6696070000000005,8.8409,-2.74981,-6.171876999999999
2026-05-10 11:25:54.140,294,1.7437602,0.40831652,2.669607,8.8409,-2.74981,-6.171877
2026-05-10 11:25:54.150,295,1.7437602,0.40831652,2.669607,8.8409,-2.74981,-6.171877
2026-05-10 11:25:54.160,296,1.597125733333333,0.2760933466666667,2.2374882666666664,8.214406666666667,-2.7165687333333337,-6.271651800000001
2026-05-10 11:25:54.170,297,1.413558125,0.12884898475,1.918511375,7.1149,-2.7263299,-6.3745318
2026-05-10 11:25:54.180,298,1.198210175,-0.02003165575,1.852272775,6.475324,-2.7750082,-6.36262
2026-05-10 11:25:54.190,299,1.0192058,-0.10665256,1.8907809999999998,5.838700666666667,-3.1076242,-6.0746986666666665
2026-05-10 11:25:54.200,300,0.9626628749999999,-0.133483395,1.919685125,5.520389,-3.2739322,-5.930738
2026-05-10 11:25:54.210,301,0.7930341,-0.2139759,2.0063975,5.520389,-3.2739322,-5.930738
2026-05-10 11:25:54.220,302,0.7773929424999999,-0.234571615,2.026856075,5.4859515,-3.32077795,-5.8838159
2026-05-10 11:25:54.230,303,0.71246029,-0.3428248933333333,2.1600650666666668,5.296812333333333,-3.5489744,-5.519065533333333
2026-05-10 11:25:54.240,304,0.7034557,-0.36605796,2.1959817,5.253899,-3.592804,-5.4070735
2026-05-10 11:25:54.250,305,0.777362425,-0.4295372625,2.2023387750000003,5.2285865000000005,-3.43371175,-5.172730375
2026-05-10 11:25:54.260,306,0.801998,-0.45069703,2.2044578,5.215109375,-3.1399238,-4.9466338
2026-05-10 11:25:54.270,307,0.8019979999999999,-0.45069703,2.2044578,5.2134295,-3.0596714000000005,-4.8973064
2026-05-10 11:25:54.280,308,0.84806775,-0.453258155,2.1118914,5.19533255,-2.8725939,-4.8556913999999995
2026-05-10 11:25:54.290,309,0.8941375,-0.45581928,2.019325,5.1772356,-2.6855164,-4.8140764
2026-05-10 11:25:54.300,310,0.8941374999999999,-0.45581928,2.019325,5.1772356,-2.6855163999999996,-4.8140764
2026-05-10 11:25:54.310,311,0.90601319,-0.4467333775,2.003318025,5.1772356,-2.6855164,-4.8140764
2026-05-10 11:25:54.320,312,0.94164026,-0.41947567,1.9552971,5.164445625000001,-2.655889425,-4.814992650000001
2026-05-10 11:25:54.330,313,1.05673843,-0.38041852,1.8641027000000001,5.1260757,-2.5670085,-4.8177414
2026-05-10 11:25:54.340,314,1.1718366,-0.34136137,1.7729083,5.1260757,-2.5670085,-4.8177414
2026-05-10 11:25:54.350,315,1.1543356,-0.40612125,1.5272843,4.9015827,-2.1487186,-4.9866457
2026-05-10 11:25:54.360,316,1.1543356,-0.40612125,1.5272843,4.9015827,-2.1487186,-4.9866457
2026-05-10 11:25:54.370,317,1.1543356,-0.40612125,1.5272843,4.740619649999999,-1.86000835,-5.13241335
2026-05-10 11:25:54.380,318,1.1543356,-0.40612125,1.5272843,4.5796566,-1.5712981,-5.278181
2026-05-10 11:25:54.390,319,1.1543356,-0.40612125,1.5272843,4.5796566,-1.5712981,-5.278181
2026-05-10 11:25:54.400,320,1.1543356,-0.40612125,1.5272843,4.5796566,-1.5712981,-5.278181
2026-05-10 11:25:54.410,321,1.1543356,-0.40612125,1.5272843,4.5796566,-1.5712981,-5.278181
2026-05-10 11:25:54.420,322,1.1072190666666666,-0.4242523866666667,1.4390881,4.4842089,-1.5070554666666667,-5.337587666666667
2026-05-10 11:25:54.430,323,1.012986,-0.46051466,1.2626957,4.2933135,-1.3785702,-5.456401
2026-05-10 11:25:54.440,324,0.9666418,-0.4586243,1.15320755,4.2933135,-1.3785702,-5.456401
2026-05-10 11:25:54.450,325,0.9611537,-0.5170424,0.699553,3.806454,-2.812118,-5.690668
2026-05-10 11:25:54.460,326,0.9029643,-0.5167222625,0.7515377249999999,3.693062175,-2.81188895,-5.710253874999999
2026-05-10 11:25:54.470,327,0.7283961,-0.51576185,0.9074919,3.3528867000000004,-2.8112018000000005,-5.7690115
2026-05-10 11:25:54.480,328,0.64255275,-0.59044604,0.850689825,3.13240245,-2.4687356,-5.58838615
2026-05-10 11:25:54.490,329,0.6139383,-0.61534077,0.8317558,3.0589077,-2.3545802,-5.5281777
2026-05-10 11:25:54.500,330,0.3884779666666667,-0.7024190233333334,0.7089031333333334,2.8358401,-1.9968167333333333,-5.0577099
2026-05-10 11:25:54.510,331,0.26160063499999997,-0.7501656999999999,0.65302593,2.71331065,-1.77563255,-4.745048499999999
2026-05-10 11:25:54.520,332,-0.12769037,-0.8893812,0.41667065,2.715296,-1.8133535,-3.9590178
2026-05-10 11:25:54.530,333,-0.252590945,-0.94069515,0.3189362975,2.715296,-1.8133535,-3.9590178
2026-05-10 11:25:54.540,334,-0.29422447,-0.9577998,0.28635818,2.715296,-1.8133535,-3.9590178
2026-05-10 11:25:54.550,335,-0.283248235,-0.936670515,0.27620514,2.74835905,-1.6826283000000002,-3.4381024
2026-05-10 11:25:54.560,336,-0.2909316,-0.8995037,0.324958,2.7814221,-1.5519031,-2.917187
2026-05-10 11:25:54.570,337,-0.2909316,-0.8995037,0.324958,2.7814221,-1.5519031,-2.917187
2026-05-10 11:25:54.580,338,-0.2909316,-0.8995037,0.324958,2.7814221,-1.5519030999999999,-2.917187
2026-05-10 11:25:54.590,339,-0.2909316,-0.8995037,0.324958,2.7814221,-1.5519031,-2.917187
2026-05-10 11:25:54.600,340,-0.10790263650000001,-1.10507975,0.1896757,3.082845925,-1.2616658250000001,-2.5949937
2026-05-10 11:25:54.610,341,-0.133056543,-1.377306,-0.066985615,3.2708778,-1.0706941,-2.4384212
2026-05-10 11:25:54.620,342,-0.16177773,-1.4452063,-0.13750802,3.2708777999999996,-1.0706941,-2.4384212
2026-05-10 11:25:54.630,343,-0.16177773,-1.4452063,-0.13750802,3.2708778,-1.0706941,-2.4384212
2026-05-10 11:25:54.640,344,-0.2430477175,-1.4980295,-0.329317975,3.345785175,-0.89717018,-2.4557927
2026-05-10 11:25:54.650,345,-0.48685768,-1.6564991,-0.90474784,3.5705073,-0.37659842,-2.5079072
2026-05-10 11:25:54.660,346,-0.48685768,-1.6564991000000002,-0.9047478400000001,3.4289393,-0.39690968,-2.5761714
2026-05-10 11:25:54.670,347,-0.65598344,-1.6965929,-0.97490442,3.4289393,-0.39690968,-2.5761714
2026-05-10 11:25:54.680,348,-0.8251092,-1.7366867,-1.045061,3.1250339,-0.54061574,-2.553875
2026-05-10 11:25:54.690,349,-1.0738737,-1.80133985,-1.0859018,2.867745075,-0.66966103,-2.32438055
2026-05-10 11:25:54.700,350,-1.3929472,-1.9088309,-1.0935394,2.0958786,-1.0567969,-1.6358971999999998
2026-05-10 11:25:54.710,351,-1.536675,-2.0340211,-0.9386523,1.7934239499999998,-1.2006556499999999,-1.2373076
2026-05-10 11:25:54.720,352,-1.536675,-2.0340211,-0.9386522999999999,1.4909693,-1.3445144000000002,-0.838718
2026-05-10 11:25:54.730,353,-1.536675,-2.0340211,-0.9386523,1.4909693,-1.3445144,-0.838718
2026-05-10 11:25:54.740,354,-1.536675,-2.0340211,-0.9386523,1.24883765,-1.3140475249999999,-0.3213533075
2026-05-10 11:25:54.750,355,-1.5455171000000003,-1.9736518,-0.6980285,1.1681271,-1.3038919,-0.14889841
2026-05-10 11:25:54.760,356,-1.1844898000000001,-2.0492353,-0.668301195,0.6315583,-0.16989690000000002,1.0516808800000002
2026-05-10 11:25:54.770,357,-1.10043,-2.060425,-0.71693206,0.2519819,0.6000224,1.6401732
2026-05-10 11:25:54.780,358,-0.882094125,-2.038060975,-0.816770215,-0.20005838000000004,1.0012845,1.76906575
2026-05-10 11:25:54.790,359,-0.8094374533333334,-1.9839165333333335,-0.8078926666666666,-0.65209866,1.4025466,1.8979583
2026-05-10 11:25:54.800,360,-0.9609707,-1.8388267,-0.5230183,-1.7009543,2.0060816,1.8962784
2026-05-10 11:25:54.810,361,-0.9609707,-1.8388267,-0.5230183,-1.7009543,2.0060816,1.8962784
2026-05-10 11:25:54.820,362,-0.9609707,-1.8388267,-0.5230183,-1.7009543,2.0060816,1.8962784
2026-05-10 11:25:54.830,363,-1.1073207,-1.7668306999999999,-0.2539782266666667,-1.7009543,2.0060816,1.8962784
2026-05-10 11:25:54.840,364,-1.180404275,-1.69543435,-0.02295865625,-1.5770631750000002,1.898340125,2.2329033999999996
2026-05-10 11:25:54.850,365,-1.0383532,-1.5733235,0.20330454,-0.568448285,0.89434488,2.564717625
2026-05-10 11:25:54.860,366,-1.0383532,-1.5733235,0.20330454,-0.38545596,0.7862599175,2.616717575
2026-05-10 11:25:54.870,367,-0.5758059433333332,-1.368494433333333,0.31282313,-0.3161736666666667,0.9279042966666666,2.757700266666667
2026-05-10 11:25:54.880,368,-0.2997126,-1.2623297,0.41496322,-0.5749769,1.231657,2.8147144
2026-05-10 11:25:54.890,369,-0.2997126,-1.2623297,0.41496322,-0.5749769,1.231657,2.8147144
2026-05-10 11:25:54.900,370,-0.19671879,-1.2313828,0.598297075,-0.5749769,1.231657,2.8147144
2026-05-10 11:25:54.910,371,0.7665082066666666,-0.3461584000000001,1.97785915,0.5075781333333333,1.0330749166666666,1.5207490666666668
2026-05-10 11:25:54.920,372,1.7297352033333333,0.5390659999999998,3.3574212250000004,1.5901331666666667,0.8344928333333332,0.22678373333333335
2026-05-10 11:25:54.930,373,2.6929622,1.4242904,4.7369833,2.6726882,0.63591075,-1.0671816
2026-05-10 11:25:54.940,374,2.6929622,1.4242904,4.7369833,2.6726882,0.63591075,-1.0671816
2026-05-10 11:25:54.950,375,2.6929622,1.4242904,4.7369833,2.6726882,0.63591075,-1.0671816
2026-05-10 11:25:54.960,376,2.6929622,1.4242904,4.7369833,3.3068809,0.40756167499999996,-1.071075875
2026-05-10 11:25:54.970,377,2.900824775,1.3421972,4.605406075,5.209459,-0.27748555,-1.0827587
2026-05-10 11:25:54.980,378,3.1510781333333333,1.2623094333333333,4.178800966666667,6.9173363,-0.7612908099999999,-1.2925909
2026-05-10 11:25:54.990,379,3.5168972,1.209704775,3.085332425,7.956978,-0.850019,-1.7426459
2026-05-10 11:25:55.000,380,3.5285594,1.367031,2.101403,7.159646,-0.26557365,-2.5118778
2026-05-10 11:25:55.010,381,3.5285594,1.367031,2.101403,6.09994745,0.2685134625,-3.0255773250000004
2026-05-10 11:25:55.020,382,3.2747642999999997,1.5147835,1.8787681,5.7467146,0.4465425,-3.1968105
2026-05-10 11:25:55.030,383,3.1856737,1.53444925,1.88334155,5.7467146,0.4465425,-3.1968105
2026-05-10 11:25:55.040,384,3.0965831,1.554115,1.887915,5.1428747,0.73945236,-3.4833064
2026-05-10 11:25:55.050,385,2.759978,1.5066122999999998,1.8572425,4.351651,0.8907941999999999,-4.121355
2026-05-10 11:25:55.060,386,2.7303726249999998,1.494950025,1.8466169,4.320039,0.8754462199999999,-4.1672463
2026-05-10 11:25:55.070,387,2.6415565,1.4599632,1.8147401,4.288427,0.86009824,-4.2131376
2026-05-10 11:25:55.080,388,2.6415565,1.4599632,1.8147401,4.288427,0.86009824,-4.2131376
2026-05-10 11:25:55.090,389,2.6415565,1.4599632,1.8147401,4.0375648,0.55018596,-4.586885466666667
2026-05-10 11:25:55.100,390,2.4766077500000003,1.40535635,1.72875945,3.9121337,0.39522982,-4.7737594
2026-05-10 11:25:55.110,391,2.311659,1.3507495,1.6427788,3.9121337,0.39522982,-4.7737594
2026-05-10 11:25:55.120,392,2.311659,1.3507495,1.6427788,3.9121337,0.39522982,-4.7737594
2026-05-10 11:25:55.130,393,2.1203065333333337,1.2788754333333334,1.6794475999999998,3.6581664000000003,0.20631973,-5.132948
2026-05-10 11:25:55.140,394,1.8060809000000002,1.0911003,1.720832,3.6581664000000003,0.20631973,-5.132948
2026-05-10 11:25:55.150,395,1.718713025,1.021172425,1.74501025,3.62567605,0.27110962250000004,-5.178953825
2026-05-10 11:25:55.160,396,1.4116474333333333,0.7745777233333334,1.8495590666666668,3.645083866666667,0.972752,-5.411604433333333
2026-05-10 11:25:55.170,397,1.3217235,0.70095557,1.9135872,3.7563632000000005,0.9949468,-5.3953147
2026-05-10 11:25:55.180,398,1.3217235,0.70095557,1.9135872,4.9385018,0.5503132374999999,-5.0916764500000005
2026-05-10 11:25:55.190,399,1.1158578,0.04396598,2.0429242,6.25694,0.20616703,-4.7708573
2026-05-10 11:25:55.200,400,1.1158578,0.043965979999999995,2.0429242,6.25694,0.20616703,-4.7708573
2026-05-10 11:25:55.210,401,1.2737327999999999,-0.087794755,1.847501125,6.8149652750000005,0.0223347625,-4.735350950000001
2026-05-10 11:25:55.220,402,1.45546595,-0.2656709775,1.539693475,7.163425675,-0.206396095,-4.780745975
2026-05-10 11:25:55.230,403,1.498502,-0.31032297,1.4588046,7.6507816,-0.7087564,-4.9524374
2026-05-10 11:25:55.240,404,1.4586216666666667,-0.4831785899999999,1.1572829999999998,7.8469712,-1.7011069999999997,-5.341252933333333
2026-05-10 11:25:55.250,405,1.4386815,-0.5696064,1.0065222,7.9241437999999995,-2.26203405,-5.56803655
2026-05-10 11:25:55.260,406,1.4386815,-0.5696064,1.0065222,7.9032216,-2.3267858,-5.6004124
2026-05-10 11:25:55.270,407,1.4386815,-0.5696064,1.0065222,7.9032216,-2.3267858,-5.6004124
2026-05-10 11:25:55.280,408,1.4813262666666667,-0.5943842766666666,0.9977005466666666,7.903221599999999,-2.3267858,-5.6004124
2026-05-10 11:25:55.290,409,1.5666158,-0.64394003,0.98005724,7.4334664,-2.6762006,-6.033974
2026-05-10 11:25:55.300,410,1.5666158,-0.64394003,0.98005724,7.4334664,-2.6762006,-6.033974
2026-05-10 11:25:55.310,411,1.5666158,-0.64394003,0.9800572400000002,7.4334664,-2.6762006,-6.033974
2026-05-10 11:25:55.320,412,1.310030775,-0.841390545,1.4700248249999999,6.557638,-2.0932825,-6.445239
2026-05-10 11:25:55.330,413,1.4631951,-0.8441346,1.2230592,6.557638,-2.0932825,-6.445239
2026-05-10 11:25:55.340,414,1.4631951,-0.8441346,1.2230592,6.554279,-2.1844542,-6.4876943
2026-05-10 11:25:55.350,415,1.2028954333333333,-0.83242664,1.8056135333333332,7.007031666666666,-2.9306260666666666,-6.308710766666667
2026-05-10 11:25:55.360,416,1.0727456,-0.82657266,2.0968907,7.233408,-3.303712,-6.219219
2026-05-10 11:25:55.370,417,1.0727456,-0.82657266,2.0968907,7.233408,-3.303712,-6.219219
2026-05-10 11:25:55.380,418,1.0727456,-0.82657266,2.0968907,7.233408,-3.3037119999999995,-6.219219
2026-05-10 11:25:55.390,419,1.1623849,-0.80355303,2.37166275,7.233408,-3.303712,-6.219219
2026-05-10 11:25:55.400,420,1.2520242,-0.7805334,2.6464348,8.22083325,-4.67380645,-6.1165935000000005
2026-05-10 11:25:55.410,421,1.2520242,-0.7805334,2.6464348,8.549975,-5.1305046,-6.082385
2026-05-10 11:25:55.420,422,1.2520242,-0.7805334,2.6464348,8.549975,-5.1305046,-6.0823849999999995
2026-05-10 11:25:55.430,423,1.2520242,-0.7805334,2.6464348,8.549975,-5.1305046,-6.082385
2026-05-10 11:25:55.440,424,1.417948575,-0.868755,2.7790645,10.150213,-7.2312703,-6.4362287
2026-05-10 11:25:55.450,425,1.7762012,-0.819346585,2.7350985,11.750451,-9.332036,-6.7900724
2026-05-10 11:25:55.460,426,2.144068166666667,-0.7295547333333333,2.5569783999999998,11.583735666666668,-9.444587666666667,-7.381491933333333
2026-05-10 11:25:55.470,427,2.224382775,-0.68985732,2.110260375,11.250305,-9.669691,-8.564331
2026-05-10 11:25:55.480,428,2.0757918,-0.6366225,1.3097715,11.250305,-9.669691,-8.564331
2026-05-10 11:25:55.490,429,2.0757918,-0.6366225,1.3097715,11.250305,-9.669691,-8.564331
2026-05-10 11:25:55.500,430,2.0757918,-0.6366225,1.3097715,11.250305000000003,-9.669691,-8.564331
2026-05-10 11:25:55.510,431,1.6080207,-0.4899676,0.32050648,11.250305,-9.669691,-8.564331
2026-05-10 11:25:55.520,432,1.6080207,-0.4899676,0.32050648,8.815358,-7.52864665,-8.5307715
2026-05-10 11:25:55.530,433,1.1906792,-0.2977003,-0.29995653,5.255732,-4.531093,-7.891768
2026-05-10 11:25:55.540,434,1.1906792,-0.2977003,-0.29995653,5.255732,-4.531093,-7.891768
2026-05-10 11:25:55.550,435,1.1082659000000001,-0.2614329475,-0.26876568,5.255732,-4.531093,-7.891768
2026-05-10 11:25:55.560,436,1.016903875,-0.3141036975,0.0059302274999999995,2.727055,-2.8458683,-7.122383
2026-05-10 11:25:55.570,437,0.950970125,-0.46150557999999997,0.43127516499999996,1.341040075,-2.182354175,-6.6468245
2026-05-10 11:25:55.580,438,0.9360912,-0.503444,0.54369026,0.8790351,-1.9611828000000002,-6.488305
2026-05-10 11:25:55.590,439,0.9360912,-0.503444,0.54369026,0.8790351,-1.9611828,-6.488305
2026-05-10 11:25:55.600,440,0.9360912,-0.503444,0.54369026,-0.12740358000000002,-1.361465925,-5.97964525
2026-05-10 11:25:55.610,441,0.9360912,-0.503444,0.54369026,-0.46288314,-1.1615603,-5.810092
2026-05-10 11:25:55.620,442,0.9360912,-0.503444,0.54369026,-0.46288314,-1.1615603,-5.810092
2026-05-10 11:25:55.630,443,0.921090375,-0.72036215,0.9085591399999999,-0.5450445150000001,-0.92397189,-5.75309065
2026-05-10 11:25:55.640,444,0.5708259499999999,-0.9924968999999999,1.42114995,-0.3819435,-0.22220223,-5.551238
2026-05-10 11:25:55.650,445,0.4778936999999999,-1.065489,1.5403337,-0.3819435,-0.22220223000000003,-5.551238000000001
2026-05-10 11:25:55.660,446,0.4778937,-1.065489,1.5403337,1.9445368,-1.2805263,-5.258786
2026-05-10 11:25:55.670,447,0.4778937,-1.065489,1.5403337,1.9445368,-1.2805263,-5.258786
2026-05-10 11:25:55.680,448,0.12460074666666669,-1.3882923666666667,1.5267151333333333,1.9445368,-1.2805263,-5.258786
2026-05-10 11:25:55.690,449,-0.21293926,-1.5761895,1.3755682,2.92108125,-1.63009395,-5.120196
2026-05-10 11:25:55.700,450,-0.21293926,-1.5761895,1.3755682,4.1591906,-2.0820578750000003,-4.865618
2026-05-10 11:25:55.710,451,-0.9108254866666666,-1.8531569,0.47978413733333336,5.077053766666666,-2.551431433333333,-2.6208155333333334
2026-05-10 11:25:55.720,452,-1.1292884,-2.16181815,-0.3412089435,5.143638,-2.6325238,-1.6723963
2026-05-10 11:25:55.730,453,-1.209034,-2.2051287,-0.5575935,3.1640911750000003,-1.32817375,-0.71352876
2026-05-10 11:25:55.740,454,-1.209034,-2.2051287,-0.5575935,2.9133692,-1.1919508,-0.627664
2026-05-10 11:25:55.750,455,-1.209034,-2.2051287,-0.5575935,2.9133692,-1.1919508,-0.627664
2026-05-10 11:25:55.760,456,-1.209034,-2.2051287,-0.5575935,2.9133692,-1.1919508,-0.627664
2026-05-10 11:25:55.770,457,-1.209034,-2.2051287,-0.5575935,1.5925257,-0.5367978,-0.08964448
2026-05-10 11:25:55.780,458,-1.3546522,-2.2235444,-0.48325992,0.41126502,0.18524489,0.6160576
2026-05-10 11:25:55.790,459,-1.3546522,-2.2235444,-0.48325992,0.4112650199999999,0.18524489,0.6160576
2026-05-10 11:25:55.800,460,-1.055290225,-2.224565875,-0.036572255,-0.18215238,0.60078596,1.032629575
2026-05-10 11:25:55.810,461,-0.8587086,-2.2179954,0.100554645,-1.6573538,1.9698877499999998,1.7059175500000001
2026-05-10 11:25:55.820,462,-0.6272723666666667,-2.151670333333333,0.4452292133333334,-2.1497366,2.7172813333333337,1.7381152333333334
2026-05-10 11:25:55.830,463,-0.5961475625,-2.031581875,0.6924032124999999,-2.4049764,3.2878294,1.6881261
2026-05-10 11:25:55.840,464,-0.59863245,-2.0097513,0.70827305,-2.4049764,3.2878294,1.6881261
2026-05-10 11:25:55.850,465,-0.59863245,-2.0097513,0.70827305,-2.4049764,3.2878294,1.6881261
2026-05-10 11:25:55.860,466,-0.59863245,-2.0097513,0.70827305,-2.4049764,3.2878294,1.6881261
2026-05-10 11:25:55.870,467,-0.59863245,-2.0097513,0.70827305,-2.4049764,3.2878294,1.6881261
2026-05-10 11:25:55.880,468,-0.5932510449999999,-1.9958481,0.7519036375,-2.487366925,3.662595325,1.4571427
2026-05-10 11:25:55.890,469,-0.57710683,-1.9541385,0.8827954,-2.3849707,3.5966218,1.2063061
2026-05-10 11:25:55.900,470,-0.6785761999999999,-1.9251732,1.0660378,-2.2328652333333334,3.4400876,1.0884091333333332
2026-05-10 11:25:55.910,471,-0.6785762,-1.9251732,1.0660378,-1.9286543,3.1270192,0.8526152
2026-05-10 11:25:55.920,472,-0.6785762,-1.9251732,1.0660378,-1.745089275,2.9437978,0.80065346
2026-05-10 11:25:55.930,473,-0.83651225,-1.82184415,1.07689205,-0.97043575,2.1249711,0.717384845
2026-05-10 11:25:55.940,474,-0.8210845,-1.7628468,1.0371946,-0.7464773,1.8558086000000003,0.79000145
2026-05-10 11:25:55.950,475,-0.7063827,-1.5870438,1.0001193,-0.79045963,1.8971947,1.079857
2026-05-10 11:25:55.960,476,-0.6870827700000001,-1.47824175,1.0045098,-1.0995956575,2.3844361750000003,1.349134075
2026-05-10 11:25:55.970,477,-0.68064946,-1.4419744,1.0059733,-1.202641,2.54685,1.4388931
2026-05-10 11:25:55.980,478,-0.86974585,-1.3203209666666667,1.0910798666666668,-2.5196155333333334,4.895066666666666,2.4459044666666667
2026-05-10 11:25:55.990,479,-0.5949889875,-1.1126106999999998,1.25771055,-4.005023625,7.1670908749999995,4.044844125
2026-05-10 11:25:56.000,480,0.4032349166666667,-0.7957781333333332,1.2577359666666668,-5.539377133333333,8.2968228,5.340642
2026-05-10 11:25:56.010,481,0.80577874,-0.6775395,1.2525121,-6.1069727,8.597165,5.7477837
2026-05-10 11:25:56.020,482,1.17232452,-0.42417107499999995,1.69040355,-6.3940792,7.90955965,6.4664667
2026-05-10 11:25:56.030,483,1.5388703,-0.17080265,2.128295,-5.9486055,6.2134156,7.6914043
2026-05-10 11:25:56.040,484,1.5388703,-0.17080265000000003,2.128295,-5.9486055,6.2134156,7.691404299999999
2026-05-10 11:25:56.050,485,1.5388703,-0.17080265,2.128295,-5.9486055,6.2134156,7.6914043
2026-05-10 11:25:56.060,486,2.0257889,-0.06887597000000001,2.3434904999999997,-5.9486055,6.2134156,7.6914043
2026-05-10 11:25:56.070,487,3.049308875,0.2894833525,2.4669428499999997,-5.9486055,6.2134156,7.6914043
2026-05-10 11:25:56.080,488,2.690543266666667,0.7167694533333333,1.3903657333333335,-5.51031,7.2682274,5.295845533333334
2026-05-10 11:25:56.090,489,2.2875116,0.78108215,0.9999364,-5.8007765,7.6148934,4.4454193
2026-05-10 11:25:56.100,490,2.2875116,0.78108215,0.9999364,-5.8007765,7.6148934,4.4454193
2026-05-10 11:25:56.110,491,2.00912645,0.7176943100000001,0.965406925,-6.00129295,7.5165442,4.38929615
2026-05-10 11:25:56.120,492,1.9163314,0.69656503,0.9538971,-6.2018094,7.418195,4.333173
2026-05-10 11:25:56.130,493,1.9163314,0.69656503,0.9538971,-6.2018094,7.418195,4.333173
2026-05-10 11:25:56.140,494,1.46828695,0.3188295765,0.9691114000000001,-6.481432875,5.77344025,4.774904825
2026-05-10 11:25:56.150,495,1.0202425,-0.058905877,0.9843257,-6.7610563500000005,4.1286855,5.21663665
2026-05-10 11:25:56.160,496,1.0202425,-0.058905877,0.9843257,-6.782131,3.7259727,5.505881300000001
2026-05-10 11:25:56.170,497,1.0202425,-0.058905877,0.9843257,-6.782131,3.7259727,5.505881300000001
2026-05-10 11:25:56.180,498,1.3762388,-0.015915563,0.8641358,-7.1671675,3.7659842,5.48102655
2026-05-10 11:25:56.190,499,1.6432208000000001,0.0906607775,0.752787845,-7.502647,3.9322922,5.240613
2026-05-10 11:25:56.200,500,1.4107530333333334,0.144378338,0.9513969666666666,-8.135910333333333,3.8135807333333336,3.8729874333333334
2026-05-10 11:25:56.210,501,1.0961005575,0.10274989875,1.11727555,-8.230187,3.179248,2.7519479
2026-05-10 11:25:56.220,502,0.90328443,0.057564333,1.1068939,-7.7225585,2.299144,2.683531
2026-05-10 11:25:56.230,503,0.8423865633333333,0.058499346,1.0685176466666666,-7.533241100000001,1.8811085666666667,2.7645215666666663
2026-05-10 11:25:56.240,504,0.72059083,0.060369372,0.99176514,-7.1546063,1.0450377,2.9265027
2026-05-10 11:25:56.250,505,0.72059083,0.060369372,0.99176514,-7.1546063,1.0450377,2.9265027
2026-05-10 11:25:56.260,506,0.72059083,0.060369372,0.99176514,-6.926906450000001,0.43890667499999997,3.3266958
2026-05-10 11:25:56.270,507,0.72059083,0.060369372,0.99176514,-6.8510065,0.23686299999999996,3.4600935000000006
2026-05-10 11:25:56.280,508,0.82504815,0.159902625,1.00390005,-6.8004192,0.1933006725,3.580472125
2026-05-10 11:25:56.290,509,1.687202075,0.488077245,1.11591875,-6.649153725,0.1928043425,3.72581985
2026-05-10 11:25:56.300,510,3.369221,0.86547726,1.0239011,-6.650643,0.5833763,3.0784554000000006
2026-05-10 11:25:56.310,511,3.369221,0.86547726,1.0239011,-7.490124,1.4440855,0.2284636
2026-05-10 11:25:56.320,512,2.874497,0.86578226,0.9966435,-7.490124,1.4440855,0.2284636
2026-05-10 11:25:56.330,513,1.6467119000000001,0.639305615,1.50310605,-8.23977075,1.7840319999999998,-0.13576478749999998
2026-05-10 11:25:56.340,514,1.2374502,0.5638134,1.6719269,-8.489653,1.8973474999999997,-0.25717425
2026-05-10 11:25:56.350,515,1.2374502,0.5638134,1.6719269,-8.606175,1.4940237,0.4596761
2026-05-10 11:25:56.360,516,1.2374502,0.5638134,1.6719269,-8.606175,1.4940237,0.4596761
2026-05-10 11:25:56.370,517,1.2374502,0.5638134,1.6719269,-8.606175,1.4940237000000003,0.4596761
2026-05-10 11:25:56.380,518,1.6168016,0.5302748,2.236594,-8.606175,1.4940237,0.4596761
2026-05-10 11:25:56.390,519,1.6168016,0.5302748,2.236594,-8.403902500000001,1.1810316,0.79626285
2026-05-10 11:25:56.400,520,2.4288611,0.48344287,2.6564965,-6.98150255,0.2766456,1.630093875
2026-05-10 11:25:56.410,521,2.6252954,0.60753546,3.075647,-5.526701266666667,0.09773844,1.2777264
2026-05-10 11:25:56.420,522,3.018164,0.85572064,3.913948,-4.0387354,-0.06627888,0.8707884
2026-05-10 11:25:56.430,523,2.8233152666666665,0.9644668799999999,4.035215333333333,-1.1431324466666666,-0.9064731400000001,1.0351111833333333
2026-05-10 11:25:56.440,524,2.7258909,1.01884,4.095849,-0.35842517,-1.1878275,1.1279627
2026-05-10 11:25:56.450,525,2.96919775,1.1338772000000001,4.2624135,1.5829045649999998,-1.4598152,1.15300815
2026-05-10 11:25:56.460,526,3.5397189,1.2504388,4.299763,3.5242343,-1.7318029,1.1780536
2026-05-10 11:25:56.470,527,3.9112037666666666,1.1626288,3.8988861333333333,3.5242343,-1.7318029,1.1780536
2026-05-10 11:25:56.480,528,4.0969462,1.1187238,3.6984477,4.8517971499999994,-1.7122552,0.795651965
2026-05-10 11:25:56.490,529,4.0969462,1.1187238,3.6984477,6.17936,-1.6927075,0.41325033
2026-05-10 11:25:56.500,530,4.0969462,1.1187238,3.6984477000000004,6.17936,-1.6927075,0.41325033000000005
2026-05-10 11:25:56.510,531,4.1624379000000005,1.03746905,3.34623195,6.86349095,-1.5646549,0.043982298
2026-05-10 11:25:56.520,532,4.2279296,0.9562143,2.9940162,7.0915346,-1.5219707,-0.079107046
2026-05-10 11:25:56.530,533,4.250898200000001,0.9108865,2.4987027333333334,7.0915346,-1.5219707,-0.079107046
2026-05-10 11:25:56.540,534,4.1509132,0.922127,1.6786345,7.42911415,-1.1231520499999998,-1.084667625
2026-05-10 11:25:56.550,535,4.1509132,0.922127,1.6786345,7.310988,-1.0319041,-1.4657712
2026-05-10 11:25:56.560,536,3.9693778,0.94816506,1.2573295,7.090389,-0.979560625,-1.7093919
2026-05-10 11:25:56.570,537,3.7558288,0.9827199066666666,1.0301820866666667,6.4074162,-0.8009461766666667,-2.0954713999999997
2026-05-10 11:25:56.580,538,2.9017546000000003,1.20342395,0.42340884999999995,2.65520215,0.351782025,-3.15343915
2026-05-10 11:25:56.590,539,2.7799184,1.3005637,0.66345334,1.8241963,0.6301075,-3.2661438
2026-05-10 11:25:56.600,540,2.7799184,1.3005637,0.66345334,1.8241962999999999,0.6301075,-3.2661438
2026-05-10 11:25:56.610,541,2.6969562000000002,1.3434625,0.865172445,0.7350236,0.941648775,-3.55515935
2026-05-10 11:25:56.620,542,2.352881225,1.447691125,1.396483875,0.01687515000000001,0.86380165,-4.394335625
2026-05-10 11:25:56.630,543,2.074907675,1.2740225,1.903175075,0.786527175,0.50793446,-4.837862
2026-05-10 11:25:56.640,544,1.8722027333333333,0.89350745,2.366479533333333,4.0234637,0.049938235,-5.384472
2026-05-10 11:25:56.650,545,1.8972448,0.70918775,2.2615952,4.0234637,0.049938235,-5.384472
2026-05-10 11:25:56.660,546,1.851281875,0.5081851625,2.0757308,5.293987175,-0.22304217625,-5.6301159
2026-05-10 11:25:56.670,547,1.8281147999999998,0.007683366666666654,1.6403192999999998,6.3489770000000005,-0.71654492,-5.863338966666667
2026-05-10 11:25:56.680,548,1.73876,-0.2775772,1.3746535,7.020827,-1.3384057,-6.0761237
2026-05-10 11:25:56.690,549,1.73876,-0.2775772,1.3746535,7.0766066499999996,-1.481615425,-6.1032691
2026-05-10 11:25:56.700,550,1.6374127,-0.5291162,1.1467133,7.2439456,-1.9112446,-6.1847053
2026-05-10 11:25:56.710,551,1.6374126999999998,-0.5291162,1.1467133,7.184691600000001,-2.13981,-6.1966171
2026-05-10 11:25:56.720,552,1.67771975,-0.6307075175,0.8772310249999999,6.9264482,-2.4275784500000004,-6.20379475
2026-05-10 11:25:56.730,553,1.6598529000000002,-0.6858936499999999,0.65732495,6.240599,-2.9480357,-6.20746
2026-05-10 11:25:56.740,554,1.6134478,-0.7101633499999999,0.5794241,6.240599,-2.9480357,-6.20746
2026-05-10 11:25:56.750,555,1.6134478,-0.71016335,0.5794241,5.97319285,-3.18207345,-6.1689755
2026-05-10 11:25:56.760,556,1.6147436000000002,-0.69680893,0.589317935,5.52672685,-3.607044725,-6.120068125
2026-05-10 11:25:56.770,557,1.7688228,-0.71876144,0.6866255,4.55354225,-4.548884525,-6.22284605
2026-05-10 11:25:56.780,558,1.6935337666666666,-0.8325689000000001,0.7135985166666666,3.959577466666667,-4.807458666666666,-6.394537533333334
2026-05-10 11:25:56.790,559,1.6502792,-0.8515131,0.7149807,3.607312,-4.792696,-6.408282
2026-05-10 11:25:56.800,560,1.6117403999999997,-0.8312679666666667,0.7729922333333333,3.315929333333333,-4.668792,-6.336403333333333
2026-05-10 11:25:56.810,561,1.592471,-0.8211454,0.801998,3.170238,-4.60684,-6.300464
2026-05-10 11:25:56.820,562,1.9180082749999998,-0.703425175,1.04160035,2.7230846250000003,-4.364021125,-6.270569975
2026-05-10 11:25:56.830,563,2.5832605,-0.62381685,1.3089179,1.6614516333333336,-2.5689428666666667,-7.174510466666667
2026-05-10 11:25:56.840,564,2.5951056250000004,-0.7161545625,1.4317604,1.5488489,-1.9338466,-7.7167554
2026-05-10 11:25:56.850,565,2.599054,-0.7469338,1.4727079,1.5488489,-1.9338466,-7.7167554
2026-05-10 11:25:56.860,566,2.216043875,-0.787576425,1.46292075,2.055867025,-2.04567315,-8.07800585
2026-05-10 11:25:56.870,567,1.0670135,-0.9095043,1.4335593,3.5886297333333332,-3.6401459333333333,-7.822536666666667
2026-05-10 11:25:56.880,568,1.0670135,-0.9095043,1.4335593,4.0178514,-4.137046525,-7.2423039000000005
2026-05-10 11:25:56.890,569,1.0670135,-0.9095043,1.4335593,4.094324,-4.204738,-7.1020722
2026-05-10 11:25:56.900,570,0.8403336266666667,-0.9211309733333333,1.0385972333333333,4.072129533333333,-4.087350333333333,-6.927466533333333
2026-05-10 11:25:56.910,571,0.6299148225,-0.9807737075,0.7981106225,4.0610323,-4.0286565,-6.8401637
2026-05-10 11:25:56.920,572,0.57771665,-0.9970704,0.74345803,3.87124405,-3.6862664250000003,-6.498079
2026-05-10 11:25:56.930,573,0.06663498500000001,-1.185267375,0.3849005125,3.566995,-3.18047,-6.0002236
2026-05-10 11:25:56.940,574,-0.10372557,-1.2479997,0.26538134,3.014671,-2.6676486666666666,-5.395670733333333
2026-05-10 11:25:56.950,575,-0.4025235,-1.4214244,0.16976601,2.4863744,-2.4051292,-4.7154217
2026-05-10 11:25:56.960,576,-0.49089754999999996,-1.4685613,0.1461518275,2.245120775,-2.7064003000000003,-4.3716571
2026-05-10 11:25:56.970,577,-1.8072395000000003,-2.0013971,0.8816978299999999,1.7108809,-3.7739254999999994,-3.562108
2026-05-10 11:25:56.980,578,-2.119529125,-2.1696692,1.015226965,2.1812471,-2.6498952325,-1.68323918725
2026-05-10 11:25:56.990,579,-2.4725833,-2.3559911,1.0601839,2.4065037,-0.66156703,0.013591751
2026-05-10 11:25:57.000,580,-2.4725833,-2.3559911,1.0601839,2.4065037,-0.66156703,0.013591751
2026-05-10 11:25:57.010,581,-2.404759175,-2.3373162499999998,1.0020859675,2.102712775,0.042722427500000104,0.50633091325
2026-05-10 11:25:57.020,582,-1.422461075,-1.980344225,0.800031425,0.5235496924999999,3.52553245,2.158454125
2026-05-10 11:25:57.030,583,-1.1237038,-1.7600824333333334,0.6533308099999999,-1.1531608666666668,6.877069766666666,2.4862216
2026-05-10 11:25:57.040,584,-1.121163,-1.7333939,0.6013156,-1.5063937,7.4944,2.6888762
2026-05-10 11:25:57.050,585,-1.121163,-1.7333939,0.6013156,-1.8687895,7.95277825,3.08700755
2026-05-10 11:25:57.060,586,-0.95267755,-1.68055545,0.641317925,-2.094542375,8.2445045,3.33551515
2026-05-10 11:25:57.070,587,-0.8243570333333333,-1.6392827,0.6767468,-2.4094052,8.661305,3.6829066000000004
2026-05-10 11:25:57.080,588,-0.7511566075,-1.608264575,0.681747075,-2.6749025250000003,8.91313425,3.856926775
2026-05-10 11:25:57.090,589,0.012073879999999981,-1.3240863999999999,0.750897475,-4.254447325,9.557063,4.62340995
2026-05-10 11:25:57.100,590,0.3369099199999999,-1.1994603,0.8918813499999999,-5.0217705,8.816923,4.934264
2026-05-10 11:25:57.110,591,0.379503865,-1.1812274999999999,0.9327526375,-5.087858325,7.871761975,5.136765875
2026-05-10 11:25:57.120,592,0.5072857,-1.1265291,1.0553665,-5.0373473,5.2821517,5.8594193
2026-05-10 11:25:57.130,593,0.5072857,-1.1265291,1.0553665,-5.0373473,5.2821517,5.8594193
2026-05-10 11:25:57.140,594,1.232084,-1.0075588,1.3881907,-5.1076735499999995,3.3811771999999998,7.09817775
2026-05-10 11:25:57.150,595,1.232084,-1.0075588,1.3881907,-5.1440964,3.1531336,7.301825
2026-05-10 11:25:57.160,596,1.3791658,-0.963867225,1.450237,-5.21236055,3.07918075,7.433733675
2026-05-10 11:25:57.170,597,2.0931251499999997,-0.77640198,1.754827975,-5.6514196,3.042567,7.8952804
2026-05-10 11:25:57.180,598,2.7116215,-0.50765157,2.143235,-5.7809234,3.6916113,7.384139
2026-05-10 11:25:57.190,599,2.7116215,-0.50765157,2.143235,-5.7809234,3.6916113,7.384139
2026-05-10 11:25:57.200,600,2.72128675,-0.48685767,2.1676875,-5.7671787000000005,3.7322338999999998,7.2424945
2026-05-10 11:25:57.210,601,2.390444325,-0.3227322375,2.290834925,-4.919183075,3.5170185000000003,6.3658647
2026-05-10 11:25:57.220,602,1.7903484,-0.2759917,2.069633,-3.7335066,2.8448503666666665,5.820069466666666
2026-05-10 11:25:57.230,603,1.68909245,-0.266356985,1.8584317000000001,-2.9247465000000004,2.2537873,5.783061200000001
2026-05-10 11:25:57.240,604,1.5795738250000002,-0.2531397475,1.574177325,-2.445370025,1.91521525,5.81165725
2026-05-10 11:25:57.250,605,1.5547858,-0.24239218000000004,1.3550181,-2.3214407,1.8629863,5.8713310000000005
2026-05-10 11:25:57.260,606,1.565563875,-0.2471790525,1.128053625,-2.748511775,2.171129625,5.87587435
2026-05-10 11:25:57.270,607,1.5949711,-0.28487944,0.448669445,-5.179679,3.874871,5.806732
2026-05-10 11:25:57.280,608,1.7094901,-0.3740462,0.7501047,-6.355747,4.5202503,5.537188
2026-05-10 11:25:57.290,609,1.7094901,-0.3740462,0.7501047,-6.355747,4.5202503,5.537188
2026-05-10 11:25:57.300,610,1.6374127,-0.32360120000000003,1.19798145,-6.3751041,3.96413375,4.74703375
2026-05-10 11:25:57.310,611,1.36007935,-0.21891521000000003,1.2462312500000001,-5.518747575,2.1312324499999997,4.18732845
2026-05-10 11:25:57.320,612,1.5636278,-0.2177566,1.1151261,-4.8718031,0.7172576266666667,4.349360533333333
2026-05-10 11:25:57.330,613,1.5636278,-0.2177566,1.1151261,-4.8559203,0.70952,4.419305
2026-05-10 11:25:57.340,614,0.19034644999999983,-1.03542625,0.39785861999999994,-2.88923978,1.4133895,3.3303611999999996
2026-05-10 11:25:57.350,615,-1.1829349,-1.8530959,-0.31940886,-0.92255926,2.117259,2.2414174
2026-05-10 11:25:57.360,616,-1.1829349,-1.8530959,-0.31940886,-0.94157243,2.2480605,2.7153724500000003
2026-05-10 11:25:57.370,617,-1.1829349,-1.8530959,-0.31940886,-0.9605856,2.378862,3.1893275
2026-05-10 11:25:57.380,618,-1.1829349,-1.8530959,-0.31940886,-0.9605856,2.378862,3.1893275
2026-05-10 11:25:57.390,619,-0.86639202,-1.773762,-0.27266834,-0.9605856,2.378862,3.1893275
2026-05-10 11:25:57.400,620,-0.7537635000000001,-1.7444309999999998,-0.23513566,-1.0773626666666667,2.5675174666666667,3.5309029666666665
2026-05-10 11:25:57.410,621,-0.697479725,-1.7324181,-0.20690230999999998,-1.30045575,2.9121473,3.9725330000000003
2026-05-10 11:25:57.420,622,-0.5596515624999999,-1.6780095,-0.1555731075,-1.6649132,3.3851097,4.471304575
2026-05-10 11:25:57.430,623,-0.18230738,-1.4030493333333334,0.023944488,-3.1961997666666666,3.7589084666666666,5.153564666666667
2026-05-10 11:25:57.440,624,-0.1111192875,-1.3657047,0.27318666,-4.2999949,3.56214605,5.463846075
2026-05-10 11:25:57.450,625,0.2874862775,-1.403313625,0.7405767750000001,-5.76515515,2.47060625,6.962909625
2026-05-10 11:25:57.460,626,0.7363640666666665,-1.3237561,0.9460511666666666,-6.061616,1.6342173000000002,7.7283616
2026-05-10 11:25:57.470,627,1.469171,-1.1569577,1.2431823,-5.9764,0.95188075,7.826558
2026-05-10 11:25:57.480,628,1.6843971,-1.06231805,1.3124546499999998,-5.9764,0.95188075,7.826558
2026-05-10 11:25:57.490,629,1.8996232,-0.9676784,1.381727,-5.9108084000000005,0.736168975,7.74790925
2026-05-10 11:25:57.500,630,1.8996232,-0.9676784,1.381727,-5.750074533333333,0.3404555706666666,7.3962036666666675
2026-05-10 11:25:57.510,631,2.2912008249999998,-0.7054832375,1.485498275,-5.55979,-0.019547688,6.85009
2026-05-10 11:25:57.520,632,2.4217267,-0.61808485,1.5200887,-5.5575375,-0.0050396385000000005,6.74609025
2026-05-10 11:25:57.530,633,2.0747958333333334,-0.46673454999999997,1.4106920333333335,-5.799707333333333,0.5053891899999999,6.188523
2026-05-10 11:25:57.540,634,1.8005471,-0.402264325,1.31417725,-5.924171,0.73884153,6.065739
2026-05-10 11:25:57.550,635,1.4981972,-0.4358791,1.1887279,-5.924171,0.73884153,6.065739
2026-05-10 11:25:57.560,636,1.3857516,-0.52149385,1.2951975,-7.0865965,1.7065029999999999,6.356918366666666
2026-05-10 11:25:57.570,637,1.3857516,-0.52149385,1.2951975,-7.259064,1.7907515,6.4318004
2026-05-10 11:25:57.580,638,1.387169325,-0.5734481125,1.652520225,-7.2957165,1.6207781749999999,6.61517435
2026-05-10 11:25:57.590,639,1.4559691,-0.57680195,2.0208191500000003,-6.8851770000000005,1.166103575,6.748800975
2026-05-10 11:25:57.600,640,1.9309053,-0.41380462,2.5255132,-6.744257999999999,1.0334313,6.7729683
2026-05-10 11:25:57.610,641,2.1665288,-0.250654865,2.50856105,-5.38485365,0.37430769999999997,6.4470718
2026-05-10 11:25:57.620,642,2.419073975,0.22380878999999998,2.01941665,-2.7098746,-0.35731798000000004,4.58992685
2026-05-10 11:25:57.630,643,2.1110580333333333,0.28263844,1.7549601666666668,-2.2713497,-0.38148534,4.0795107
2026-05-10 11:25:57.640,644,1.160860375,0.2263546625,1.149137125,-2.201253,0.104610674,3.5321755
2026-05-10 11:25:57.650,645,0.8210235,0.07945585,1.0029244,-2.8086438,0.9005298935,3.754721425
2026-05-10 11:25:57.660,646,0.96499533,-0.02442215675,1.02414515,-3.2296445,1.4506522,4.0824122
2026-05-10 11:25:57.670,647,1.0909173,-0.04542948,1.0114615,-3.2036827,1.5315918999999998,4.3336306
2026-05-10 11:25:57.680,648,1.5850925,0.25903952,0.793278,-3.28725675,1.106047875,4.2563181
2026-05-10 11:25:57.690,649,1.5850925,0.25903952,0.793278,-3.3200526,1.0085385,4.218788
2026-05-10 11:25:57.700,650,1.5850925,0.25903952,0.793278,-3.3200526,1.0085385,4.218788
2026-05-10 11:25:57.710,651,1.5850925,0.25903952,0.793278,-3.3200526,1.0085385,4.218788
2026-05-10 11:25:57.720,652,1.5850925,0.25903952,0.793278,-3.3200526,1.0085385,4.218788
2026-05-10 11:25:57.730,653,1.7419308666666666,0.43679377333333336,0.8129742333333333,-3.687488166666667,0.8169304500000001,4.0376665
2026-05-10 11:25:57.740,654,2.0997567,0.6818081,0.7715694,-4.413196,1.454012,3.850589
2026-05-10 11:25:57.750,655,2.0997567,0.6818081,0.7715694,-4.413196,1.454012,3.850589
2026-05-10 11:25:57.760,656,2.216470825,0.77923755,0.7624377675,-4.72679875,1.575994175,3.5968890499999997
2026-05-10 11:25:57.770,657,2.6965800666666664,1.1676291,0.7835010233333334,-4.973512,1.455081,3.0786080000000005
2026-05-10 11:25:57.780,658,2.744260775,1.322836325,0.88172825,-5.071556,1.05866765,2.53234175
2026-05-10 11:25:57.790,659,2.7241225,1.3866053,0.9181023,-5.136155,0.8333729,2.2569942
2026-05-10 11:25:57.800,660,2.7241225,1.3866053,0.9181023,-5.136155,0.8333729,2.2569942
2026-05-10 11:25:57.810,661,2.7464408750000002,1.39390755,0.92355995,-5.199456,0.7874053,2.22736725
2026-05-10 11:25:57.820,662,3.03278375,1.63602525,1.6132801250000002,-5.212933225,0.7123452375,1.359327825
2026-05-10 11:25:57.830,663,3.19299115,1.7196125,2.221745425,-4.49936615,0.525840425,0.8017988075
2026-05-10 11:25:57.840,664,3.4425179333333333,1.6883911666666667,2.6757456666666664,-2.5378396833333334,-0.013489953333333323,0.2395610033333333
2026-05-10 11:25:57.850,665,3.5744463499999997,1.715222,2.6056704,0.3984750375,-0.9809732250000001,-0.5404248475
2026-05-10 11:25:57.860,666,3.33670375,1.54954165,1.98973505,1.588631375,-0.142713405,-2.618703025
2026-05-10 11:25:57.870,667,2.988466975,1.390614675,1.9528730749999998,1.22707555,0.6516786750000001,-3.215594725
2026-05-10 11:25:57.880,668,2.642146,1.2328565333333332,2.0283906666666667,1.19134,0.72204274,-3.5155294
2026-05-10 11:25:57.890,669,2.4546554,1.1735442,2.081036,1.19134,0.72204274,-3.5155294
2026-05-10 11:25:57.900,670,2.3399537,1.1545186,2.1155503,2.1371121,-0.20250183,-4.1738896
2026-05-10 11:25:57.910,671,2.3399537,1.1545186,2.1155503,2.1371121,-0.20250183,-4.1738896
2026-05-10 11:25:57.920,672,1.8624257,1.0000583,2.0714014,2.8257098,0.035277467,-4.5808783
2026-05-10 11:25:57.930,673,1.6632067,0.715758205,1.9082058,3.74941455,0.1840231485,-4.832631225
2026-05-10 11:25:57.940,674,1.4716712,0.33636108,1.732601,5.596595,0.09193522,-5.316513
2026-05-10 11:25:57.950,675,1.4441695999999997,0.16183871,1.638998,5.851682,0.0004072466666666663,-5.3183454999999995
2026-05-10 11:25:57.960,676,1.4745677499999998,0.11567748,1.58838535,6.481433,-0.240070035,-5.3307154
2026-05-10 11:25:57.970,677,1.6530842,-0.11128698,1.0203035,7.049996,-0.61346143,-5.5865154
2026-05-10 11:25:57.980,678,2.0252198,-0.008923284666666665,0.44173308333333333,6.067367933333333,-0.48609602,-5.971207766666667
2026-05-10 11:25:57.990,679,2.148418,0.041526813,0.33379996,4.72450805,-0.1175915605,-6.3098945
2026-05-10 11:25:58.000,680,2.148418,0.041526813,0.33379996,4.3692136,-0.012675454,-6.396981
2026-05-10 11:25:58.010,681,2.3347704,-0.15464316,1.2507437,2.7262915999999997,0.5900958133333334,-6.8130308
2026-05-10 11:25:58.020,682,2.2702392,-0.34064487,1.514356625,1.6429221,1.63704245,-7.4878335499999995
2026-05-10 11:25:58.030,683,1.981015,-0.66569436,1.78402175,1.4733306,2.81074365,-7.462520850000001
2026-05-10 11:25:58.040,684,1.7258730333333334,-0.8915967666666668,1.9464753333333331,1.5421293,3.4048102,-7.33191
2026-05-10 11:25:58.050,685,1.5926539,-0.9995705,2.05762,1.5421293,3.4048102,-7.33191
2026-05-10 11:25:58.060,686,1.40858825,-1.13378565,2.455997,1.5421293,3.4048102,-7.33191
2026-05-10 11:25:58.070,687,1.1983017,-1.4646586,3.2592754,4.925101,1.029308,-6.3975916
2026-05-10 11:25:58.080,688,1.3159101666666666,-1.5701932666666665,3.3458251333333333,6.652831666666667,-0.20189093333333333,-6.230214533333334
2026-05-10 11:25:58.090,689,1.5896964,-1.717188575,2.047360175,11.112097,-3.1655037,-6.5666485
2026-05-10 11:25:58.100,690,1.3486762,-1.5378336,0.45441675,10.879052166666668,-3.5831319666666666,-7.1616314
2026-05-10 11:25:58.110,691,1.3486762,-1.5378336,0.45441675,10.1053915,-3.4715471,-7.3552756
2026-05-10 11:25:58.120,692,1.3486762,-1.5378336,0.45441675,9.657703375,-3.286531325,-7.3641331999999995
2026-05-10 11:25:58.130,693,1.3486762,-1.5378336,0.45441675,7.715494925,-2.476485925,-7.331681075
2026-05-10 11:25:58.140,694,1.3486762,-1.5378336,0.45441675,5.9180627,-1.7114917,-7.1546063
2026-05-10 11:25:58.150,695,0.9103884499999999,-1.119592725,0.085492795,5.9180627,-1.7114917,-7.1546063
2026-05-10 11:25:58.160,696,0.4683199875,-1.34114525,0.28664782499999997,4.21344315,-1.304960875,-6.7928214
2026-05-10 11:25:58.170,697,0.32123825,-1.4182534,0.3401418,2.5088236,-0.89843005,-6.4310365
2026-05-10 11:25:58.180,698,-0.0981002425,-1.5329095,0.16543648125,2.4444537,-0.9141598375,-6.136446725
2026-05-10 11:25:58.190,699,-0.6221551999999999,-1.762450425,-0.052335372850000006,2.20804875,-0.8951467000000001,-4.45962155
2026-05-10 11:25:58.200,700,-0.6565017,-1.7854091,-0.07128465,2.2725332,-0.62728227,-3.39431085
2026-05-10 11:25:58.210,701,-0.721444575,-1.846921775,-0.162982065,2.2988386,-0.54534996,-3.1273246
2026-05-10 11:25:58.220,702,-0.96426356,-2.0889633,-0.51832294,2.2110267,0.1815797,-2.4556782
2026-05-10 11:25:58.230,703,-1.1018326,-2.1956768,-0.72656673,1.4859297,0.51614295,-1.385747775
2026-05-10 11:25:58.240,704,-1.1018326,-2.1956768,-0.72656673,0.463035875,1.02148125,-0.7461337175
2026-05-10 11:25:58.250,705,-1.3058689333333333,-2.3965422666666667,-0.5046025900000001,0.09101892,1.9445367666666666,0.80048801
2026-05-10 11:25:58.260,706,-0.78457322,-2.135307525,-0.65160813,0.831883925,1.5470926,2.82773345
2026-05-10 11:25:58.270,707,-0.47006808666666666,-1.9118188333333332,-0.4907196766666666,-0.18422678666666667,2.0369302,3.7044903333333337
2026-05-10 11:25:58.280,708,-0.2285499325,-1.567774375,0.1327973825,-1.94659845,3.033518625,5.015929175
2026-05-10 11:25:58.290,709,0.43917196999999997,-0.708959075,0.6000502375,-3.7226129,3.6462545,6.75281
2026-05-10 11:25:58.300,710,0.6991261999999999,-0.553325,0.67747855,-3.7226129,3.6462545,6.75281
2026-05-10 11:25:58.310,711,0.788140525,-0.53221095,0.7982630374999999,-5.114164,4.18458,7.022354
2026-05-10 11:25:58.320,712,1.0551835,-0.4688688,1.1606165,-6.5919235,4.7093895,7.12223075
2026-05-10 11:25:58.330,713,1.1640516333333333,-0.5027732266666667,1.3572945666666667,-7.084509999999999,4.884326,7.155523
2026-05-10 11:25:58.340,714,1.2184857,-0.51972544,1.4556336,-7.657119475,5.045289,7.11432775
2026-05-10 11:25:58.350,715,1.4702687,-0.5904613,1.9077942,-8.11,5.141958,7.024645
2026-05-10 11:25:58.360,716,1.4702687,-0.5904613,1.9077942,-8.11,5.141958,7.024645
2026-05-10 11:25:58.370,717,1.5753155,-0.5872497333333334,2.070527333333333,-8.11,5.141958,7.024645
2026-05-10 11:25:58.380,718,1.6278389,-0.58564395,2.1518939,-8.009741325,4.7158799,6.78243695
2026-05-10 11:25:58.390,719,1.6464223,-0.5653836125,2.18281035,-7.6773543,4.1748056,6.6307898
2026-05-10 11:25:58.400,720,1.7021725000000003,-0.5046026,2.2755597,-7.6773543,4.1748056,6.6307898
2026-05-10 11:25:58.410,721,1.666179625,-0.456993125,2.154317925,-6.669312075000001,3.1240411249999998,6.393010175
2026-05-10 11:25:58.420,722,1.654182,-0.4411233,2.113904,-6.333298,2.7737863,6.3137503
2026-05-10 11:25:58.430,723,1.6541819999999998,-0.44112329999999994,2.113904,-6.333298,2.7737863,6.3137503
2026-05-10 11:25:58.440,724,1.6334948,-0.41452113749999997,1.9774477999999998,-6.138432,2.431549,6.39301
2026-05-10 11:25:58.450,725,2.0001166,-0.18940128,0.78583854,-7.571675,3.0301971,6.051384
2026-05-10 11:25:58.460,726,1.964565775,-0.208396295,0.761675555,-7.571675,3.0301971,6.051384
2026-05-10 11:25:58.470,727,1.800287975,-0.290962105,0.769465675,-9.24911075,3.3714797,5.342551025
2026-05-10 11:25:58.480,728,1.5266134666666666,-0.39542957666666667,1.4179689333333332,-9.533621,3.278819,5.2103753
2026-05-10 11:25:58.490,729,1.3250164,-0.45087993,2.233301,-8.964753,1.5178474,4.931668
2026-05-10 11:25:58.500,730,1.288002,-0.43624494999999996,2.6360685,-8.1310745,0.91919947,4.9490775
2026-05-10 11:25:58.510,731,1.3530058,-0.344257885,3.11198045,-7.297396,0.32055154,4.966487
2026-05-10 11:25:58.520,732,1.455024,-0.2669058,3.1851249,-4.6368743,-0.43636139999999995,4.939201833333333
2026-05-10 11:25:58.530,733,1.455024,-0.2669058,3.1851249,-2.0329595,-1.0125091,4.8226285
2026-05-10 11:25:58.540,734,1.6770492,-0.040002335,2.7027187,-2.0329595,-1.0125091,4.8226285
2026-05-10 11:25:58.550,735,1.6770492,-0.040002335,2.7027187,-2.0329595,-1.0125091,4.8226285
2026-05-10 11:25:58.560,736,1.694336625,0.294315955,1.344590725,-0.3565926,-1.1119275,4.478711
2026-05-10 11:25:58.570,737,1.627732175,0.6374609925,-0.5903545499999999,-2.654973,0.7330383,4.2390995
2026-05-10 11:25:58.580,738,1.7632736,0.4741740233333333,0.43128533333333335,-7.870031233333333,2.4809784,3.9313759666666663
2026-05-10 11:25:58.590,739,1.8392537,0.48612595,1.2091559,-9.297293,2.7934485749999998,3.66018995
2026-05-10 11:25:58.600,740,1.8392537,0.48612595,1.2091559,-9.36823,2.7896688,3.6016614
2026-05-10 11:25:58.610,741,2.30793955,0.6977236375,1.4856812,-8.9142805,2.7149142,2.78600365
2026-05-10 11:25:58.620,742,2.4405084,0.9375139999999998,1.6388964666666668,-8.159836166666667,2.233476066666667,1.4548265233333335
2026-05-10 11:25:58.630,743,1.921072575,0.9469607250000001,1.9778744750000001,-7.108027874999999,0.93664733,0.40614903
2026-05-10 11:25:58.640,744,2.0317954499999997,1.0398015250000001,2.246335275,-6.3022966,0.28409052474999996,0.456354515
2026-05-10 11:25:58.650,745,2.2087874,1.1939721,2.4944139,-5.3123894,-0.4063781,0.55741453
2026-05-10 11:25:58.660,746,2.32900785,1.3358401500000001,2.59509055,-4.4546204,-0.652862225,0.5550092575
2026-05-10 11:25:58.670,747,2.4492283,1.4777082,2.6957672,-3.8281398,-0.6469063,0.54825157
2026-05-10 11:25:58.680,748,2.4401424,1.5117752333333332,2.7446724000000002,-3.8281398,-0.6469063,0.54825157
2026-05-10 11:25:58.690,749,2.4219706,1.5799093,2.8424828,-3.8281398,-0.6469063,0.54825157
2026-05-10 11:25:58.700,750,2.4219706,1.5799093,2.8424828,-3.8281398,-0.6469063,0.54825157
2026-05-10 11:25:58.710,751,2.1455520333333333,0.9592023333333334,2.01381661,-0.31306840000000014,-0.5696827466666667,-1.5625932866666665
2026-05-10 11:25:58.720,752,1.8691334666666668,0.3384953666666668,1.18515042,3.202003,-0.4924591933333333,-3.673438143333333
2026-05-10 11:25:58.730,753,1.5927149,-0.2822116,0.35648423,6.7170744,-0.41523564,-5.784283
2026-05-10 11:25:58.740,754,1.04350604,-0.434446095,1.2453775,7.0356405,-5.1444016,-7.57052935
2026-05-10 11:25:58.750,755,0.43301308,-0.53033584,0.7553490000000002,6.7047043,-5.1494412,-7.265784
2026-05-10 11:25:58.760,756,0.43301308,-0.53033584,0.755349,6.095709775,-4.8358383,-6.92984625
2026-05-10 11:25:58.770,757,0.02713573,-0.6027791,0.2851386,5.583690125,-4.520250075,-6.6396089
2026-05-10 11:25:58.780,758,0.02713573,-0.6027791,0.2851386,4.6566257,-3.8870883,-6.1048346
2026-05-10 11:25:58.790,759,0.02713573,-0.6027791,0.2851386,4.6566257,-3.8870883,-6.1048346
2026-05-10 11:25:58.800,760,-0.1557560375,-0.758733275,0.289117485,3.36991445,-2.7019716,-5.2046864
2026-05-10 11:25:58.810,761,-0.32158889,-1.0311577,0.26570147499999996,2.270280675,-1.739629775,-4.259219775
2026-05-10 11:25:58.820,762,-0.48673569999999994,-1.332029,0.2719061,1.5990925,-1.2147056,-3.5880697
2026-05-10 11:25:58.830,763,-0.4867357,-1.332029,0.2719061,1.5990925,-1.2147056,-3.5880697
2026-05-10 11:25:58.840,764,-0.6930283,-1.5641766,0.4753936,1.479515575,-1.285718675,-3.208378825
2026-05-10 11:25:58.850,765,-0.6930283,-1.5641766,0.4753936,1.4396566,-1.3093897,-3.0818152
2026-05-10 11:25:58.860,766,-0.7461614333333334,-1.6586942666666664,0.5473083333333334,1.5746578666666666,-1.4523321666666666,-2.931236866666667
2026-05-10 11:25:58.870,767,-0.8993208,-1.8689506,0.71430993,2.0089831,-1.5795448,-2.6887233
2026-05-10 11:25:58.880,768,-1.433986075,-2.4538017,0.1864895325,3.429703,-1.26265845,-1.43614415
2026-05-10 11:25:58.890,769,-1.5110637,-2.4606924,-0.09988388,2.946559433333333,-0.6412557866666667,-0.8413650666666667
2026-05-10 11:25:58.900,770,-1.5110637,-2.4606924,-0.09988388,2.7536278,-0.43233988,-0.6711882
2026-05-10 11:25:58.910,771,-1.5110637,-2.4606924,-0.09988388,2.7536278,-0.43233988,-0.6711882
2026-05-10 11:25:58.920,772,-1.5104947,-2.432113466666667,-0.19976776,1.4569136,0.73563445,0.22479841
2026-05-10 11:25:58.930,773,-1.3945631,-2.38678565,-0.2081676375,0.792254075,1.2922854625,0.6556875025
2026-05-10 11:25:58.940,774,-1.2680008,-2.345259,-0.13805683,0.5707009,1.4778358,0.7993172
2026-05-10 11:25:58.950,775,-1.2680008,-2.345259,-0.13805683,-0.177799955,2.113746475,1.296294275
2026-05-10 11:25:58.960,776,-1.2680008,-2.345259,-0.13805683,-0.42730024,2.3257167,1.4619533
2026-05-10 11:25:58.970,777,-1.133023375,-2.2400850500000002,-0.019863963000000002,-1.42136885,3.167527225,2.30830715
2026-05-10 11:25:58.980,778,-1.0829899,-2.1857984,0.01841571,-2.0456349333333335,3.6400951666666668,3.0851240333333334
2026-05-10 11:25:58.990,779,-0.9030252,-1.957995475,0.15991785749999998,-2.44510265,3.970395125,3.63644255
2026-05-10 11:25:59.000,780,-0.7226945875,-1.78185705,0.23406853,-3.050851975,4.53590365,4.49111935
2026-05-10 11:25:59.010,781,-0.54612947,-1.6446692,0.26300314,-3.65557015,5.08995815,5.08155895
2026-05-10 11:25:59.020,782,-0.47636923,-1.5885682999999997,0.28196767,-4.614018,5.829029000000001,5.845675
2026-05-10 11:25:59.030,783,-0.47636923,-1.5885683,0.28196767,-4.614018,5.829029,5.845675
2026-05-10 11:25:59.040,784,-0.03786806125,-1.533824225,0.7231214725,-6.846806775,5.926958300000001,7.599812875
2026-05-10 11:25:59.050,785,0.69199157,-1.3538594999999998,1.2078754,-7.766439233333333,4.925406466666666,8.789842
2026-05-10 11:25:59.060,786,1.3273792925,-1.1379017249999999,1.47208285,-7.745619,4.7122145,8.849147
2026-05-10 11:25:59.070,787,2.152016,-0.81083995,1.7312597,-7.745619,4.7122145,8.849147
2026-05-10 11:25:59.080,788,2.152016,-0.81083995,1.7312597,-7.474700000000001,4.180456,8.623585
2026-05-10 11:25:59.090,789,2.2283313500000004,-0.72455445,1.7332415,-7.4747,4.180456,8.623585
2026-05-10 11:25:59.100,790,2.3046467,-0.63826895,1.7352233,-7.313889725,4.1513638,8.178722500000001
2026-05-10 11:25:59.110,791,2.273684525,-0.6297775975,1.72368295,-7.2602863,4.1416664,8.030435
2026-05-10 11:25:59.120,792,2.180798,-0.60430354,1.6890618999999998,-7.2514286,4.279264,7.699498000000001
2026-05-10 11:25:59.130,793,2.007601975,-0.6144108349999999,1.681912175,-7.16048615,3.9915463,7.470309250000001
2026-05-10 11:25:59.140,794,2.02877695,-0.6021845375,1.697614325,-7.00914425,3.654043225,7.2965945
2026-05-10 11:25:59.150,795,2.2775109,-0.5312505,1.6929036999999998,-6.496908333333334,2.6473372333333334,6.865666999999999
2026-05-10 11:25:59.160,796,2.3578813,-0.485882,1.6881473,-6.422332,2.50638,6.796181
2026-05-10 11:25:59.170,797,2.4160098249999997,-0.318494195,1.6636337,-5.815627975,1.296752325,6.150992974999999
2026-05-10 11:25:59.180,798,2.435386,-0.26269826,1.6554624999999998,-5.613393300000001,0.8935431,5.9359303
2026-05-10 11:25:59.190,799,2.435386,-0.26269826,1.6554625,-5.517792975,0.72043917,5.834793975
2026-05-10 11:25:59.200,800,2.2207090000000003,-0.20850302,1.5882787,-5.230992,0.20112738,5.531385
2026-05-10 11:25:59.210,801,2.08996965,-0.1865200275,1.57199725,-5.201594125,0.1763873375,5.497482
2026-05-10 11:25:59.220,802,1.6873544,-0.1554359,1.6366808,-5.075832,0.37934732,5.430134
2026-05-10 11:25:59.230,803,1.521353975,-0.20045377,1.62532345,-5.0436854,1.1447614549999998,5.596136525
2026-05-10 11:25:59.240,804,1.3213576,-0.258688865,1.5578043000000001,-4.97870455,2.113746475,5.772256775000001
2026-05-10 11:25:59.250,805,1.4156923,-0.24373371999999996,1.3719703,-4.898273933333333,2.469931766666667,5.809837533333333
2026-05-10 11:25:59.260,806,1.5599691,-0.184766875,1.3254736500000002,-4.553084,2.29189,5.27390505
2026-05-10 11:25:59.270,807,1.407765,0.021525647,1.1593969,-3.3707545,0.6759224,3.3667839
2026-05-10 11:25:59.280,808,1.4077650000000002,0.021525647,1.1593969,-3.3707545,0.6759224,3.3667839
2026-05-10 11:25:59.290,809,1.33728835,0.02439166775,1.1434355999999999,-3.086702,0.17256944,3.265991
2026-05-10 11:25:59.300,810,1.1258584,0.03298973,1.0955517,-3.0644055,0.110566613,3.4088571
2026-05-10 11:25:59.310,811,1.2771629,0.0484479475,1.0122085,-3.23728035,0.52702399,3.8706713
2026-05-10 11:25:59.320,812,1.3466029,0.04530752,1.0029854,-3.3686163,0.8342892000000001,3.9924626
2026-05-10 11:25:59.330,813,1.781033725,0.1872212825,0.79987898,-3.559779,1.221883275,3.908850275
2026-05-10 11:25:59.340,814,2.1854324,0.2915414,0.7251033,-4.302973075,1.523994225,3.47181445
2026-05-10 11:25:59.350,815,2.2560462666666665,0.35471579999999997,0.84238654,-4.7257045,1.0778208133333333,2.8924468666666665
2026-05-10 11:25:59.360,816,2.45738425,0.58442436,1.02525799,-4.67773895,-0.15790865750000002,1.948660125
2026-05-10 11:25:59.370,817,2.45381705,0.6328113225,1.415982,-4.7114891,-0.259121405,1.729092225
2026-05-10 11:25:59.380,818,2.4669123,0.6490013,1.7490654,-4.4064765,-0.0571159,1.9475910999999997
2026-05-10 11:25:59.390,819,2.4669123,0.6490013,1.7490654,-4.4064765,-0.0571159,1.9475911
2026-05-10 11:25:59.400,820,2.59124875,0.75248292,1.9879209,-3.654768675,-0.33441055,2.170366075
2026-05-10 11:25:59.410,821,2.8276038999999997,0.91907799,2.3101653,-3.4041994,-0.4268421,2.2446244
2026-05-10 11:25:59.420,822,2.9396226,0.9821914399999999,2.3935542,-2.9512427,-0.6579019,2.3049474
2026-05-10 11:25:59.430,823,3.4240412,1.319985585,2.695675525,-1.1517864,-1.487915,2.2026274
2026-05-10 11:25:59.440,824,3.6977156,1.585534625,2.872515125,-0.11747702999999998,-1.614555025,1.9503781999999998
2026-05-10 11:25:59.450,825,3.9377701999999997,1.8639907999999998,2.7786581,2.1068742,-1.6781996,1.4628186333333335
2026-05-10 11:25:59.460,826,4.74228875,2.1261302,2.08734735,5.3954674,-1.1383474,-0.08040512999999999
2026-05-10 11:25:59.470,827,4.774653375,2.0750143999999997,1.7080722750000001,5.6778016000000004,-0.98647105,-0.7698429225000001
2026-05-10 11:25:59.480,828,4.0761116,1.8394570000000001,0.6843692333333333,5.378566666666667,-0.6332127433333333,-1.9707531000000003
2026-05-10 11:25:59.490,829,3.5414109,1.729109975,0.280610885,4.780326,-0.39813143,-2.6096163
2026-05-10 11:25:59.500,830,2.7424161,1.7036359,0.10598179,4.172133225,-0.2982549575,-2.8472811
2026-05-10 11:25:59.510,831,2.7424161,1.7036359,0.10598179,2.6566910999999998,-0.311579455,-3.00576255
2026-05-10 11:25:59.520,832,2.7499775,1.7578667,0.34018244999999997,1.4391476333333333,-0.48665597999999993,-3.088280166666667
2026-05-10 11:25:59.530,833,2.8900923,1.7789910249999998,0.8572756075,0.646333625,-0.56779925,-3.3573154
2026-05-10 11:25:59.540,834,2.9026997999999997,1.74232735,1.281507675,0.476856685,-0.49117384000000003,-3.6200256499999997
2026-05-10 11:25:59.550,835,2.8698626,1.7076607,1.5724088,0.37125334,-0.25992316,-4.16717
2026-05-10 11:25:59.560,836,2.815804625,1.676789875,1.694062175,0.48197266,-0.08323039,-4.5236096
2026-05-10 11:25:59.570,837,2.6017373,1.463622,2.1631749,1.421178,0.05375614,-5.1553974
2026-05-10 11:25:59.580,838,2.4660788333333334,1.2908476666666666,2.3459092333333333,2.3501513,-0.01985312,-5.5574994
2026-05-10 11:25:59.590,839,2.3982496,1.2044605,2.4372764,2.3501513,-0.01985312,-5.5574994
2026-05-10 11:25:59.600,840,2.3101653000000004,1.05487862,2.4649914500000003,3.389576675,-0.10483974499999998,-5.813260875
2026-05-10 11:25:59.610,841,2.222081,0.90529674,2.4927065,3.7360518,-0.13316862,-5.8985147
2026-05-10 11:25:59.620,842,1.9469581,0.4652405825,2.122867775,5.721936599999999,-0.48766137,-6.1327816
2026-05-10 11:25:59.630,843,1.7939054333333333,-0.2515594033333333,0.72109898,7.672773,-2.039679,-6.1905084
2026-05-10 11:25:59.640,844,1.8022392999999999,-0.29280672,0.55548972,7.3876516500000005,-2.140357225,-6.258696225
2026-05-10 11:25:59.650,845,1.958788075,-0.3209333475,0.28176948749999997,5.59457115,-2.3675992,-6.730818675
2026-05-10 11:25:59.660,846,1.9742615,-0.34849593000000006,0.3904496,5.281999,-2.3426683,-6.820004999999999
2026-05-10 11:25:59.670,847,1.4278882,-0.52033526,0.7973026,3.0009519,-1.7631098,-7.2008795
2026-05-10 11:25:59.680,848,1.5344799,-0.46832004,1.5393581,2.617366625,-1.7207691999999999,-6.727955475
2026-05-10 11:25:59.690,849,1.6403397000000002,-0.4418957133333334,1.7618508333333331,2.827644266666667,-1.8028160333333332,-6.605947866666667
2026-05-10 11:25:59.700,850,1.828521375,-0.3916082175,1.8821221,3.9540544,-2.5415049,-6.6993975
2026-05-10 11:25:59.710,851,2.1236606,-0.33319017,1.6321075,6.112165,-4.2957573,-7.146207
2026-05-10 11:25:59.720,852,2.1236606,-0.33319017,1.6321075,6.112165,-4.2957573,-7.146207
2026-05-10 11:25:59.730,853,2.2001690666666667,-0.34920734999999997,1.4691304333333335,5.994420666666667,-4.355214766666666,-7.276015866666667
2026-05-10 11:25:59.740,854,2.17890775,-0.3597161,1.27906845,5.33125015,-4.23589235,-7.70094895
2026-05-10 11:25:59.750,855,1.7065021,-0.40069413,1.2150099,3.5390477,-2.9040534,-7.834194
2026-05-10 11:25:59.760,856,1.4410597,-0.49429715,1.2097657,3.5390477,-2.9040534,-7.834194
2026-05-10 11:25:59.770,857,1.1917005999999999,-0.5345128925,1.0784318149999998,3.08441125,-2.78978335,-6.971155975
2026-05-10 11:25:59.780,858,1.1180530000000002,-0.61018801,0.8067544099999999,2.57838585,-2.6177102000000003,-5.95662335
2026-05-10 11:25:59.790,859,1.1269966333333332,-0.78205778,0.5655614533333333,2.3226624,-2.453082,-5.578879400000001
2026-05-10 11:25:59.800,860,1.1022594,-0.84010994,0.51905465,2.14772585,-2.2536345000000004,-5.6107972
2026-05-10 11:25:59.810,861,0.8480982499999999,-1.10094837,0.429720175,1.8474856,-1.9252181250000002,-5.688758999999999
2026-05-10 11:25:59.820,862,0.036587503,-1.7372965,0.47399109999999994,1.3122912666666666,-1.3376931,-5.558873666666667
2026-05-10 11:25:59.830,863,-0.32407377849999996,-2.1280205,0.5851866,1.3251194499999999,-1.24173635,-5.41104435
2026-05-10 11:25:59.840,864,-0.68473506,-2.5187445,0.6963821,1.553506675,-1.25177745,-5.28921495
2026-05-10 11:25:59.850,865,-1.2243397,-2.8254087,0.7265058,2.9558241,-1.6933185,-4.659222
2026-05-10 11:25:59.860,866,-1.3340615666666666,-2.869638933333333,0.7061387666666666,3.118008833333333,-1.7668259333333332,-4.526358833333333
2026-05-10 11:25:59.870,867,-1.77769515,-2.9999463250000002,0.44203797499999997,3.4423783,-1.9138408,-4.2606325
2026-05-10 11:25:59.880,868,-1.8674565,-3.009977425,0.3245616025,3.9478693500000004,-1.41281679,-2.910314725
2026-05-10 11:25:59.890,869,-1.89837305,-2.98758285,0.1286507975,3.657593775,-0.435623255,-2.096451325
2026-05-10 11:25:59.900,870,-1.8558401,-2.95566,-0.07189444,3.2018502000000004,0.8469646599999999,-1.0842859
2026-05-10 11:25:59.910,871,-1.56012145,-2.7818087,-0.330751015,2.3467916,1.6614771300000002,-0.343077235
2026-05-10 11:25:59.920,872,-0.9629982775,-2.462171125,-0.12532743999999998,0.4739169125,3.461048,1.1183797325
2026-05-10 11:25:59.930,873,-0.82858497,-2.3843465,-0.0307335,0.15806139,3.8215729999999994,1.5158621000000003
2026-05-10 11:25:59.940,874,-0.30968272499999994,-1.7376014,0.27882724999999997,-1.985082805,5.2590151999999994,3.1404580500000003
2026-05-10 11:25:59.950,875,0.20921952,-1.0908563,0.588388,-4.128227,6.6964574,4.765054
2026-05-10 11:25:59.960,876,0.20921952,-1.0908563,0.588388,-4.24788025,6.7149743,4.82320075
2026-05-10 11:25:59.970,877,0.20921952,-1.0908563,0.588388,-4.3675335,6.7334912,4.8813475
2026-05-10 11:25:59.980,878,0.2950782,-0.9650563599999998,0.5714967,-4.60684,6.770525,4.997641
2026-05-10 11:25:59.990,879,0.34819105,-0.84590304,0.5798509,-4.931324125,6.645794,5.161887774999999
2026-05-10 11:26:00.000,880,0.2815204966666667,-0.65430648,0.5252542066666667,-5.8605901666666655,5.805510666666667,6.064619366666666
2026-05-10 11:26:00.010,881,0.38296444,-0.489449295,0.4938092825,-6.2711425,5.4061575,6.4886107
2026-05-10 11:26:00.020,882,0.7873021,-0.28227258,0.48136955,-6.8190124,5.1160729,7.088938349999999
2026-05-10 11:26:00.030,883,0.7873021,-0.28227258,0.48136955,-7.3668823,4.8259883,7.689266
2026-05-10 11:26:00.040,884,0.7873021000000001,-0.28227258,0.48136955,-7.3668823,4.8259883,7.689266
2026-05-10 11:26:00.050,885,0.7873021,-0.28227258,0.48136955,-7.3668823,4.8259883,7.689266
2026-05-10 11:26:00.060,886,2.1963172,-0.17336377749999998,1.5102863499999999,-8.987813,4.380362,8.495456
2026-05-10 11:26:00.070,887,2.5631983,-0.08152915,2.0556688,-9.302103,4.54835,8.174141
2026-05-10 11:26:00.080,888,2.823106825,0.038615057,2.3294345499999998,-9.058749500000001,4.619974,7.8165555
2026-05-10 11:26:00.090,889,1.5991329,0.19129166,1.4082224,-6.282176275,3.4478761,5.2962399
2026-05-10 11:26:00.100,890,1.3857515666666667,0.07226031866666667,0.9621496266666666,-5.95502,2.4243715,5.3812647
2026-05-10 11:26:00.110,891,1.387459,0.020671938,0.86822134,-6.350287775,2.0778963249999998,5.6306121749999996
2026-05-10 11:26:00.120,892,1.387459,0.020671938,0.86822134,-6.4820437,1.9624046,5.713728
2026-05-10 11:26:00.130,893,1.3935568,-0.28556544,1.0295113,-7.8007493,2.1310034,5.913481
2026-05-10 11:26:00.140,894,1.3752631333333334,-0.3891487333333334,1.3719296333333333,-8.0636251,2.2140811333333335,5.976807333333333
2026-05-10 11:26:00.150,895,1.4383156,-0.48667476,1.7740669,-7.5082974,2.24325,5.9592957
2026-05-10 11:26:00.160,896,2.3056831,-0.09756667000000001,1.7955925,-6.227211133333333,1.8434385999999998,4.728911533333333
2026-05-10 11:26:00.170,897,1.5275891666666668,-0.025611249333333336,1.2696472333333333,-5.349703533333333,1.410437,3.2951598
2026-05-10 11:26:00.180,898,0.7538855,0.028324826,1.05411645,-5.160666,0.5876523849999999,3.54492735
2026-05-10 11:26:00.190,899,1.2276122333333335,0.3673994866666667,1.2614150666666666,-4.996164933333334,0.19155714999999998,4.404745766666666
2026-05-10 11:26:00.200,900,2.10920835,0.7583369500000001,1.2782148,-4.4384705,0.96677057,3.9929207499999997
2026-05-10 11:26:00.210,901,2.692779,1.0067661,1.2062899,-3.84692395,1.7631861500000001,2.90832945
2026-05-10 11:26:00.220,902,2.389306,1.0586390666666665,0.8233610499999999,-3.7859392,1.621287266666667,2.2526165
2026-05-10 11:26:00.230,903,2.048961,1.0345726,0.70510215,-3.854865,1.3345878,1.8501581
2026-05-10 11:26:00.240,904,1.9618217999999998,1.0231694875,0.7266277875,-3.90533775,1.1330023,1.9160552
2026-05-10 11:26:00.250,905,1.7004042000000001,0.98896015,0.7912047000000001,-3.96309,0.7730499833333333,2.1139501
2026-05-10 11:26:00.260,906,1.709596775,0.9602694525000001,0.8326705249999999,-3.977649,0.45631635,2.3779457
2026-05-10 11:26:00.270,907,1.7371745,0.87419736,0.957068,-3.977649,0.45631635,2.3779457
2026-05-10 11:26:00.280,908,1.7871571,0.8506797066666666,1.0071928666666665,-3.8896844666666666,0.27203865666666666,2.5949047000000003
2026-05-10 11:26:00.290,909,2.0410948,0.7388236,1.2169613,-3.7855319499999998,0.169858715,2.75324605
2026-05-10 11:26:00.300,910,2.2102204,0.6725544999999999,1.2298582999999998,-3.4040465,0.18661933,2.9712486
2026-05-10 11:26:00.310,911,2.2665956,0.6504648,1.2341573,-3.2003229666666666,0.12482012999999999,2.8619036666666666
2026-05-10 11:26:00.320,912,2.95616345,0.5723961750000001,1.307881175,-3.0984612,0.09392053,2.8072312
2026-05-10 11:26:00.330,913,3.1865273,0.56302065,1.4011793,-2.62435345,-0.323224065,2.3637430999999998
2026-05-10 11:26:00.340,914,3.110059625,0.5926108125,1.4002189250000001,-2.058081375,-0.84127597,1.850043625
2026-05-10 11:26:00.350,915,2.8927297333333333,0.7215461666666667,1.3218860666666667,-1.7815883999999997,-1.1439979,1.6394095
2026-05-10 11:26:00.360,916,2.7968094,0.78108215,1.2828797,-1.34016193,-1.6619352,1.5118914
2026-05-10 11:26:00.370,917,2.853870725,0.813949925,1.287453125,-0.85574582,-2.2361484750000002,1.42007075
2026-05-10 11:26:00.380,918,3.0250547,0.9125532499999999,1.3011734,-0.7267769,-2.4049764,1.5271631
2026-05-10 11:26:00.390,919,3.1457019,0.9476619875,1.3505513,-0.7120016075,-2.379091,1.529835625
2026-05-10 11:26:00.400,920,3.5076435,1.0529882,1.498685,-0.580169275,-2.044566,1.3190871
2026-05-10 11:26:00.410,921,4.161645375,1.196502725,1.789052525,-0.45394923,-1.65452855,0.97028305
2026-05-10 11:26:00.420,922,4.379646,1.2443409,1.8858417,-0.2341141,-1.0380636799999998,0.3243694333333333
2026-05-10 11:26:00.430,923,4.45504675,1.276553125,1.925051275,-0.14355333,-0.79641557,0.0664316
2026-05-10 11:26:00.440,924,4.7309775,1.4040758,2.06536435,0.15088372,-0.36774087,-0.6601926
2026-05-10 11:26:00.450,925,4.5692906,1.3054421,2.1740294,0.73616896,-0.3355559025,-1.6760234250000001
2026-05-10 11:26:00.460,926,4.5692906,1.3054421,2.1740294,0.93126404,-0.32482758,-2.0146337
2026-05-10 11:26:00.470,927,4.3186053,1.22723625,2.1243618,0.93126404,-0.32482758,-2.0146337
2026-05-10 11:26:00.480,928,3.93640325,1.1262851999999999,2.0344327,1.653497625,-0.39679515249999997,-2.7844382999999997
2026-05-10 11:26:00.490,929,3.126097,1.0621961333333332,1.762054,2.1108957,-0.35771252,-3.0994794
2026-05-10 11:26:00.500,930,2.651557,1.1389079,1.5573469,2.2695171,-0.31841350999999996,-3.13541865
2026-05-10 11:26:00.510,931,2.651557,1.1389079,1.5573469,2.3138049,-0.30008754,-3.1175508
2026-05-10 11:26:00.520,932,2.5717963333333334,1.4155906999999999,1.5275891,2.3110559,-0.23248512666666668,-3.0542244666666662
2026-05-10 11:26:00.530,933,2.531916,1.5539321,1.5127102,2.50114955,-0.36671003,-3.349450475
2026-05-10 11:26:00.540,934,2.50813425,1.6241800999999998,1.6420927,2.7635543,-0.5693264,-3.6305249
2026-05-10 11:26:00.550,935,2.46630255,1.6628408749999999,1.7369763,3.2937470749999997,-0.888427175,-4.02590735
2026-05-10 11:26:00.560,936,2.332636,1.6900376,1.9923724,3.470478,-0.9947941,-4.1577015
2026-05-10 11:26:00.570,937,2.332636,1.6900376,1.9923724,3.80523225,-1.1149818,-4.376314900000001
2026-05-10 11:26:00.580,938,2.33887115,1.6232654499999999,2.0035316,4.394679125,-1.189011025,-4.769024875
2026-05-10 11:26:00.590,939,2.3165782333333333,1.3295491666666666,1.9888762666666666,5.3494996666666665,-0.8785260999999999,-5.4284539333333335
2026-05-10 11:26:00.600,940,2.1351855,0.9722213000000001,1.75055945,6.04710785,-0.241902642,-5.836664799999999
2026-05-10 11:26:00.610,941,2.0357895,0.8016931,1.6085085,6.58375285,0.078648901,-6.03366885
2026-05-10 11:26:00.620,942,1.9618217,0.5222866,1.381605,6.804275,0.106595986,-6.0967407
2026-05-10 11:26:00.630,943,1.9633665666666669,0.3840264666666667,1.2961935333333334,7.0728523333333335,-0.10425433799999999,-6.136854233333334
2026-05-10 11:26:00.640,944,2.01481275,0.0277760075,1.08239555,7.334124625,-0.45410195,-6.2020386
2026-05-10 11:26:00.650,945,2.031704,-0.06793079,1.0253648,7.7150755,-1.1873693,-6.3374214
2026-05-10 11:26:00.660,946,2.0804873,-0.26721072,0.86724573,7.899709,-2.129171,-6.57291
2026-05-10 11:26:00.670,947,2.0804873,-0.26721072,0.86724573,7.899708999999999,-2.129171,-6.57291
2026-05-10 11:26:00.680,948,2.1218464,-0.3693355875,0.627399425,7.50073775,-2.4670939,-6.785185775
2026-05-10 11:26:00.690,949,2.2373257,-0.38831535,0.3904496,6.463718,-2.920394,-7.1944656
2026-05-10 11:26:00.700,950,2.116526,-0.37477797,0.5010049,3.3681582999999997,-1.9764545,-7.6098536999999995
2026-05-10 11:26:00.710,951,2.1009458,-0.40046544250000005,0.5987240125,3.1839442250000003,-1.844393075,-7.5938185250000005
2026-05-10 11:26:00.720,952,1.963925525,-0.546129415,1.3371968875,2.631302,-1.4482088,-7.545713
2026-05-10 11:26:00.730,953,1.8464694999999998,-0.6520908666666666,1.8774875333333334,2.4894285,-1.1702651,-7.4400334
2026-05-10 11:26:00.740,954,1.8027881,-0.693638,2.0734136,2.4894285,-1.1702651,-7.4400334
2026-05-10 11:26:00.750,955,1.8027881,-0.693638,2.0734136,3.556152,-1.8671097,-7.3514576
2026-05-10 11:26:00.760,956,1.7860798333333332,-0.7569750266666667,2.124758,4.3292019999999996,-2.5153395,-7.348098133333333
2026-05-10 11:26:00.770,957,1.682476225,-0.7896649675,1.87218245,5.57552,-3.8097756,-7.3589791
2026-05-10 11:26:00.780,958,1.5361109499999999,-0.6192739625,1.13692614,6.05504925,-4.78521275,-7.270289
2026-05-10 11:26:00.790,959,1.539846,-0.5023464,0.92633456,5.509037333333333,-4.903771666666667,-7.1098605
2026-05-10 11:26:00.800,960,1.9811523,-0.23867247,0.9915823,3.208417,-3.514766,-6.780757
2026-05-10 11:26:00.810,961,1.9071235500000001,-0.25403922749999996,1.0891032250000001,2.960138425,-3.2385785,-6.8746011750000005
2026-05-10 11:26:00.820,962,1.4457550333333333,-0.28741515333333334,1.7468904666666667,2.2117903,-2.4162774,-7.145291
2026-05-10 11:26:00.830,963,0.95334835,-0.910175095,0.2935079525,3.617543925,-2.40627455,-6.490825
2026-05-10 11:26:00.840,964,0.5767003566666666,-1.4096961333333333,-0.2857483766666667,2.477160533333333,-2.121331366666667,-6.271753666666666
2026-05-10 11:26:00.850,965,0.196596845,-1.7835338749999998,-0.14409377425,1.43392975,-1.952707075,-6.212690625
2026-05-10 11:26:00.860,966,-1.33959034,-2.427763525,0.30378295499999997,1.23799475,-1.1454487150000001,-5.3249887000000005
2026-05-10 11:26:00.870,967,-1.5275891,-2.4738028,0.3216651,1.3455834,-0.87857693,-4.7467284
2026-05-10 11:26:00.880,968,-1.5817386,-2.5623448,0.11232363,1.8391626,-1.0925325,-3.4077117
2026-05-10 11:26:00.890,969,-1.548901325,-2.5896482,0.057366153749999996,1.8570304000000002,-1.0472139249999999,-3.2448779500000002
2026-05-10 11:26:00.900,970,-1.420306433333333,-2.7606287333333337,-0.590258025,1.4426092,-0.44679700666666666,-2.1919372333333333
2026-05-10 11:26:00.910,971,-1.333644875,-2.789248325,-0.84189365,0.7218136516,-0.1360702325,-1.493870985
2026-05-10 11:26:00.920,972,-0.9935031,-2.674668325,-0.6687433075,-0.76243618,-0.3471241775,-0.4880431275
2026-05-10 11:26:00.930,973,-1.0269502,-2.5975907,-0.29550505,-0.9450085,-0.644921,-0.22953261
2026-05-10 11:26:00.940,974,-1.0269502,-2.5975907,-0.29550505,-0.9450085,-0.644921,-0.22953261
2026-05-10 11:26:00.950,975,-1.06914775,-2.5521002,-0.201566642,-0.9450085,-0.644921,-0.22953261
2026-05-10 11:26:00.960,976,-1.0925028,-2.4505393499999997,-0.039514502,-0.6328564,-0.9041569,0.78633632
2026-05-10 11:26:00.970,977,-1.0692494666666665,-2.3380835666666666,0.08022825666666668,-0.54993147,-0.657291,1.3729197
2026-05-10 11:26:00.980,978,-1.0210809675,-2.1788466,0.2479108075,-0.54993147,-0.657291,1.3729197
2026-05-10 11:26:00.990,979,-0.90304047,-2.0394483,0.4411843,-0.603840335,-0.1315651,1.8630627
2026-05-10 11:26:01.000,980,-0.90304047,-2.0394483,0.4411843,-0.6577492,0.39416080000000003,2.3532057
2026-05-10 11:26:01.010,981,-0.7900460775,-1.97375845,0.47040855,-0.6558020600000001,0.554818375,2.5437956500000003
2026-05-10 11:26:01.020,982,-0.4510629,-1.7766889,0.5580813,-0.64996064,1.0367911,3.1155655
2026-05-10 11:26:01.030,983,-0.4510629,-1.7766889,0.5580813,-0.6648759266666667,1.1558589000000001,3.2087733333333333
2026-05-10 11:26:01.040,984,-0.2239155025,-1.611222,0.58038446,-0.996321225,1.917582375,3.6421695
2026-05-10 11:26:01.050,985,0.05704601125,-1.3360840999999999,0.7356374225,-2.5027149,4.3154573,4.5683556
2026-05-10 11:26:01.060,986,-0.04547521875,-1.317668375,0.7994063625,-2.649551675,4.440341075,4.6987372
2026-05-10 11:26:01.070,987,-0.3539231,-1.2944047333333335,0.9327169833333334,-3.090062,4.8149924,5.089882
2026-05-10 11:26:01.080,988,-0.4630758,-1.2725742,0.99463123,-3.19024385,4.798880925000001,5.35312675
2026-05-10 11:26:01.090,989,-0.4630758,-1.2725742,0.99463123,-3.4907894,4.7505465,6.142861
2026-05-10 11:26:01.100,990,0.15401813999999997,-1.091877675,1.0998202825,-4.29094685,5.011347675,8.100760000000001
2026-05-10 11:26:01.110,991,0.6643070799999999,-0.9624952,1.22539165,-4.557666,5.0982814,8.753393
2026-05-10 11:26:01.120,992,0.7658374,-0.9394451,1.2555611,-4.916702,5.4098225,9.244529
2026-05-10 11:26:01.130,993,1.0136567666666665,-0.8712500466666667,1.2706839,-5.082857333333333,5.542584000000001,9.434253666666667
2026-05-10 11:26:01.140,994,1.907779125,-0.5603375875,1.2953042,-5.62935225,5.806617725,9.925032999999999
2026-05-10 11:26:01.150,995,2.040607,-0.50216347,1.2934291,-5.700747,5.8061213,9.962143
2026-05-10 11:26:01.160,996,2.9116535333333338,-0.02961555,1.2516787333333335,-6.335487233333333,5.346445333333333,9.230580999999999
2026-05-10 11:26:01.170,997,3.0066388,0.02792846,1.2408041,-6.4301205,5.283679,9.03149
2026-05-10 11:26:01.180,998,0.40496266,-0.44819686,1.068477,-7.9462876,2.5966353,5.4177637
2026-05-10 11:26:01.190,999,0.45402041000000004,-0.470820145,1.06423895,-7.823389199999999,2.45877065,5.6515342
2026-05-10 11:26:01.200,1000,0.50307816,-0.49344343,1.0600009,-7.7004908,2.320906,5.8853047
2026-05-10 11:26:01.210,1001,0.50307816,-0.49344343,1.0600009,-7.454694,2.0451767,6.3528457
