timestamp,id,acc_x,acc_y,acc_z,gyro_x,gyro_y,gyro_z
2026-05-10 11:30:45.950,1,0.08335852,0.33672696,1.0721967,-0.010231993,-0.5355761,-0.28389964
2026-05-10 11:30:45.960,2,0.097017854,0.34252,1.0853683,0.09239337,-0.41584653,-0.35995236
2026-05-10 11:30:45.970,3,0.097017854,0.34252,1.0853683,0.09239337,-0.41584653,-0.35995236
2026-05-10 11:30:45.980,4,0.097017854,0.34252,1.0853683,0.09239337,-0.41584653,-0.35995236
2026-05-10 11:30:45.990,5,0.097017854,0.34252,1.0853683,0.09239337,-0.41584653,-0.35995236
2026-05-10 11:30:46.000,6,0.097017854,0.34252,1.0853683,0.09239337,-0.41584653,-0.35995236
2026-05-10 11:30:46.010,7,0.097017854,0.34252,1.0853683,0.09239336999999999,-0.41584653,-0.35995236
2026-05-10 11:30:46.020,8,0.097017854,0.34252,1.0853683,0.09239336999999999,-0.41584653,-0.35995236
2026-05-10 11:30:46.030,9,0.092159846,0.3417475933333333,1.0760994000000002,0.09239336999999999,-0.41584653,-0.35995236
2026-05-10 11:30:46.040,10,0.08244383,0.34020278,1.0575616,0.09239336999999999,-0.41584653,-0.35995236
2026-05-10 11:30:46.050,11,0.08244383,0.34020278,1.0575616,0.1235474925,-0.27130053,-0.39522982500000003
2026-05-10 11:30:46.060,12,0.08244383,0.34020278,1.0575616,0.1339322,-0.22311853,-0.40698898
2026-05-10 11:30:46.070,13,0.08244383,0.34020278,1.0575616,0.1339322,-0.22311853,-0.40698898
2026-05-10 11:30:46.080,14,0.08244383,0.34020278,1.0575616,0.1339322,-0.22311853,-0.40698898
2026-05-10 11:30:46.090,15,0.08244383,0.34020278,1.0575616,0.1339322,-0.22311853,-0.40698898
2026-05-10 11:30:46.100,16,0.08244383,0.34020278,1.0575616,0.1339322,-0.22311853,-0.40698898
2026-05-10 11:30:46.110,17,0.08244383,0.34020278,1.0575616,0.1339322,-0.22311853,-0.40698898
2026-05-10 11:30:46.120,18,0.08244383,0.34020278,1.0575616,0.1339322,-0.22311853,-0.40698898
2026-05-10 11:30:46.130,19,0.08244383,0.34020278,1.0575616,0.1339322,-0.22311853,-0.40698898
2026-05-10 11:30:46.140,20,0.08244383,0.34020278,1.0575616,0.1339322,-0.22311853,-0.40698898
2026-05-10 11:30:46.150,21,0.08244383,0.34020278,1.0575616,0.1339322,-0.22311853,-0.40698898
2026-05-10 11:30:46.160,22,0.08244383,0.34020278,1.0575616,0.1339322,-0.22311853,-0.40698898
2026-05-10 11:30:46.170,23,0.08244383,0.34020278,1.0575616,0.1339322,-0.22311853,-0.40698898
2026-05-10 11:30:46.180,24,0.08244383,0.34020278,1.0575616,0.1339322,-0.22311853,-0.40698898
2026-05-10 11:30:46.190,25,0.08244383,0.34020278,1.0575616,0.1339322,-0.22311853,-0.40698898
2026-05-10 11:30:46.200,26,0.08244383,0.34020278,1.0575616,0.1339322,-0.22311853,-0.40698898
2026-05-10 11:30:46.210,27,0.08244383,0.34020278,1.0575616,0.1339322,-0.22311853,-0.40698898
2026-05-10 11:30:46.220,28,0.08244383,0.34020278,1.0575616,0.1339322,-0.22311853,-0.40698898
2026-05-10 11:30:46.230,29,0.07174198749999999,0.337275785,1.0448627250000002,0.1264491025,-0.182381454,-0.411150495
2026-05-10 11:30:46.240,30,0.03963646,0.3284948,1.0067661,0.10399981,-0.060170226,-0.42363504
2026-05-10 11:30:46.250,31,0.03963646,0.3284948,1.0067661,0.10399980999999998,-0.060170226,-0.42363504
2026-05-10 11:30:46.260,32,0.03963646,0.3284948,1.0067661,0.10399981,-0.060170226,-0.42363504
2026-05-10 11:30:46.270,33,0.03963646,0.3284948,1.0067661,0.10399981,-0.060170226,-0.42363504
2026-05-10 11:30:46.280,34,-0.031038398,0.31843323,0.9762155,0.10399980999999998,-0.060170226,-0.42363504
2026-05-10 11:30:46.290,35,-0.031038398,0.31843323,0.9762155,0.10399981,-0.060170226,-0.42363504
2026-05-10 11:30:46.300,36,-0.031038398,0.31843323,0.9762155,0.10399981,-0.060170226,-0.42363504
2026-05-10 11:30:46.310,37,-0.031038398,0.31843323,0.9762155,0.10399981,-0.060170226,-0.42363504
2026-05-10 11:30:46.320,38,-0.031038398,0.31843323,0.9762155,0.10399981,-0.060170226,-0.42363504
2026-05-10 11:30:46.330,39,-0.031038398,0.31843323,0.9762155,0.10399980999999998,-0.060170226,-0.42363504
2026-05-10 11:30:46.340,40,-0.031038398,0.31843323,0.9762155,0.10399981,-0.060170226,-0.42363504
2026-05-10 11:30:46.350,41,-0.031038398,0.31843323,0.9762155,0.10399981,-0.060170226,-0.42363504
2026-05-10 11:30:46.360,42,-0.031038398,0.31843323,0.9762155,0.10399981,-0.060170226,-0.42363504
2026-05-10 11:30:46.370,43,-0.058174127,0.31365652000000005,0.9613365866666667,0.048767410000000004,-0.019547687333333334,-0.3620394633333333
2026-05-10 11:30:46.380,44,-0.112445585,0.3041031,0.93157876,-0.06169739,0.06169739,-0.23884831
2026-05-10 11:30:46.390,45,-0.112445585,0.3041031,0.93157876,-0.06169739,0.06169739,-0.23884831
2026-05-10 11:30:46.400,46,-0.112445585,0.3041031,0.93157876,-0.06169739,0.06169739,-0.23884830999999998
2026-05-10 11:30:46.410,47,-0.112445585,0.3041031,0.93157876,-0.06169739,0.06169739,-0.23884831
2026-05-10 11:30:46.420,48,-0.112445585,0.3041031,0.93157876,-0.06169739,0.06169739,-0.23884831
2026-05-10 11:30:46.430,49,-0.112445585,0.3041031,0.93157876,-0.06169739,0.06169739,-0.23884831
2026-05-10 11:30:46.440,50,-0.112445585,0.3041031,0.93157876,-0.06169739,0.06169739,-0.23884831
2026-05-10 11:30:46.450,51,-0.112445585,0.3041031,0.93157876,-0.06169739,0.06169739,-0.23884830999999998
2026-05-10 11:30:46.460,52,-0.112445585,0.3041031,0.93157876,-0.06169739,0.06169739,-0.23884831
2026-05-10 11:30:46.470,53,-0.112445585,0.3041031,0.93157876,-0.06169739,0.06169739,-0.23884831
2026-05-10 11:30:46.480,54,-0.112445585,0.3041031,0.93157876,-0.06169739,0.06169739,-0.23884831
2026-05-10 11:30:46.490,55,-0.112445585,0.3041031,0.93157876,-0.06169739,0.06169739,-0.23884831
2026-05-10 11:30:46.500,56,-0.112445585,0.3041031,0.93157876,-0.06169739,0.06169739,-0.23884830999999998
2026-05-10 11:30:46.510,57,-0.112445585,0.3041031,0.93157876,-0.06169739,0.06169739,-0.23884831
2026-05-10 11:30:46.520,58,-0.112445585,0.3041031,0.93157876,-0.06169739,0.06169739,-0.23884831
2026-05-10 11:30:46.530,59,-0.112445585,0.3041031,0.93157876,-0.06169739,0.06169739,-0.23884831
2026-05-10 11:30:46.540,60,-0.112445585,0.3041031,0.93157876,-0.06169739,0.06169739,-0.23884830999999998
2026-05-10 11:30:46.550,61,-0.112445585,0.3041031,0.93157876,-0.06169739,0.06169739,-0.23884831
2026-05-10 11:30:46.560,62,-0.112445585,0.3041031,0.93157876,-0.06169739,0.06169739,-0.23884831
2026-05-10 11:30:46.570,63,-0.112445585,0.3041031,0.93157876,-0.06169739,0.06169739,-0.23884831
2026-05-10 11:30:46.580,64,-0.112445585,0.3041031,0.93157876,-0.06169739,0.06169739,-0.23884830999999998
2026-05-10 11:30:46.590,65,-0.112445585,0.3041031,0.93157876,-0.06169739,0.06169739,-0.23884831
2026-05-10 11:30:46.600,66,-0.112445585,0.3041031,0.93157876,-0.06169739,0.06169739,-0.23884831
2026-05-10 11:30:46.610,67,-0.112445585,0.3041031,0.93157876,-0.06169739,0.06169739,-0.23884831
2026-05-10 11:30:46.620,68,-0.112445585,0.3041031,0.93157876,-0.06169739,0.06169739,-0.23884830999999998
2026-05-10 11:30:46.630,69,-0.112445585,0.3041031,0.93157876,-0.06169739,0.06169739,-0.23884831
2026-05-10 11:30:46.640,70,-0.09439575,0.32526287,0.9181023,-0.06169739,0.06169739,-0.23884831
2026-05-10 11:30:46.650,71,-0.09439575,0.32526287,0.9181023,-0.06169739,0.06169739,-0.23884831
2026-05-10 11:30:46.660,72,-0.09439575,0.32526287,0.9181023,-0.06169739,0.06169739,-0.23884830999999998
2026-05-10 11:30:46.670,73,-0.09439575,0.32526287,0.9181023,-0.06169739,0.06169739,-0.23884831
2026-05-10 11:30:46.680,74,-0.09439575,0.32526287,0.9181023,-0.06169739,0.06169739,-0.23884831
2026-05-10 11:30:46.690,75,-0.09439575,0.32526287,0.9181023,-0.06169739,0.06169739,-0.23884831
2026-05-10 11:30:46.700,76,-0.09439575,0.32526287,0.9181023,-0.06169739,0.06169739,-0.23884830999999998
2026-05-10 11:30:46.710,77,-0.09439575,0.32526287,0.9181023,-0.105794222,-0.029130637,-0.1188132925
2026-05-10 11:30:46.720,78,-0.09439575,0.32526287,0.9181023,-0.120493166,-0.059406646,-0.07880162
2026-05-10 11:30:46.730,79,-0.09439575,0.32526287,0.9181023,-0.120493166,-0.059406646,-0.07880162
2026-05-10 11:30:46.740,80,-0.09439575,0.32526287,0.9181023,-0.120493166,-0.059406646,-0.07880162
2026-05-10 11:30:46.750,81,-0.09439575,0.32526287,0.9181023,-0.120493166,-0.059406646,-0.07880162
2026-05-10 11:30:46.760,82,-0.06610142,0.32654345,0.9381645,-0.12610549399999998,-0.1371774265,-0.07857254
2026-05-10 11:30:46.770,83,-0.06610142,0.32654345,0.9381645,-0.12797627,-0.16310102,-0.07849618
2026-05-10 11:30:46.780,84,-0.06610142,0.32654345,0.9381645,-0.12797627,-0.16310102,-0.07849618
2026-05-10 11:30:46.790,85,-0.06610142,0.32654345,0.9381645,-0.12797627,-0.16310102,-0.07849618
2026-05-10 11:30:46.800,86,-0.06610142,0.32654345,0.9381645,-0.12797627,-0.16310102,-0.07849618
2026-05-10 11:30:46.810,87,-0.06610142,0.32654345,0.9381645,-0.12797627,-0.16310102,-0.07849618
2026-05-10 11:30:46.820,88,-0.06610142,0.32654345,0.9381645,-0.12797627,-0.16310102,-0.07849618
2026-05-10 11:30:46.830,89,-0.06610142,0.32654345,0.9381645,-0.12797627,-0.16310102,-0.07849618
2026-05-10 11:30:46.840,90,-0.06610142,0.32654345,0.9381645,-0.12797627,-0.16310102,-0.07849618
2026-05-10 11:30:46.850,91,-0.06610142,0.32654345,0.9381645,-0.12797627,-0.16310102,-0.07849618
2026-05-10 11:30:46.860,92,-0.06610142,0.32654345,0.9381645,-0.12797627,-0.16310102,-0.07849618
2026-05-10 11:30:46.870,93,-0.06610142,0.32654345,0.9381645,-0.12797627,-0.16310102,-0.07849618
2026-05-10 11:30:46.880,94,-0.06610142,0.32654345,0.9381645,-0.12797627,-0.16310102,-0.07849618
2026-05-10 11:30:46.890,95,-0.06610142,0.32654345,0.9381645,-0.12797627,-0.16310102,-0.07849618
2026-05-10 11:30:46.900,96,-0.06610142,0.32654345,0.9381645,-0.12797627,-0.16310102,-0.07849618
2026-05-10 11:30:46.910,97,-0.06610142,0.32654345,0.9381645,-0.12797627,-0.16310102,-0.07849618
2026-05-10 11:30:46.920,98,-0.06610142,0.32654345,0.9381645,-0.12797627,-0.16310102,-0.07849618
2026-05-10 11:30:46.930,99,-0.06610142,0.32654345,0.9381645,-0.12797627,-0.16310102,-0.07849618
2026-05-10 11:30:46.940,100,-0.06610142,0.32654345,0.9381645,-0.12797627,-0.16310102,-0.07849618
2026-05-10 11:30:46.950,101,-0.06610142,0.32654345,0.9381645,-0.09728029125,-0.23331234750000002,-0.070096784
2026-05-10 11:30:46.960,102,-0.06610142,0.32654345,0.9381645,-0.005192355,-0.44394633,-0.044898596
2026-05-10 11:30:46.970,103,-0.06610142,0.32654345,0.9381645,-0.005192355,-0.44394633,-0.04489859599999999
2026-05-10 11:30:46.980,104,-0.06610142,0.32654345,0.9381645,-0.005192355,-0.44394633,-0.044898596
2026-05-10 11:30:46.990,105,-0.059043081,0.32379938750000004,0.94499415,-0.005192355,-0.44394633,-0.044898596
2026-05-10 11:30:47.000,106,-0.037868064,0.3155672,0.9654831,-0.005192355,-0.44394633,-0.044898596
2026-05-10 11:30:47.010,107,-0.037868064,0.3155672,0.9654831,-0.005192355,-0.44394633,-0.044898596
2026-05-10 11:30:47.020,108,-0.037868064,0.3155672,0.9654831,-0.005192355,-0.44394633,-0.04489859599999999
2026-05-10 11:30:47.030,109,-0.037868064,0.3155672,0.9654831,-0.005192355,-0.44394633,-0.044898596
2026-05-10 11:30:47.040,110,0.28019929066666666,-0.20202396666666672,0.62147931,-1.0365874366666665,-0.28191432,2.170149736
2026-05-10 11:30:47.050,111,0.5982666453333333,-0.7196151333333334,0.2774755200000001,-2.0679825183333334,-0.11988230999999999,4.385198067999999
2026-05-10 11:30:47.060,112,0.916334,-1.2372063,-0.06652827,-3.0993776,0.0421497,6.6002464
2026-05-10 11:30:47.070,113,0.916334,-1.2372063,-0.06652827,-3.0993776,0.0421497,6.6002464
2026-05-10 11:30:47.080,114,0.916334,-1.2372063,-0.06652827,-3.0993776,0.04214969999999999,6.6002464
2026-05-10 11:30:47.090,115,0.916334,-1.2372063,-0.06652827,-3.0993776,0.04214969999999999,6.6002464
2026-05-10 11:30:47.100,116,0.916334,-1.2372063,-0.06652827,-3.0993776,0.0421497,6.6002464
2026-05-10 11:30:47.110,117,0.916334,-1.2372063,-0.06652827,-3.0993776,0.0421497,6.6002464
2026-05-10 11:30:47.120,118,0.959415775,-1.222525575,-0.07800759875,-3.07081965,0.0015271624999999983,6.6013152999999996
2026-05-10 11:30:47.130,119,1.0886611,-1.1784834,-0.112445585,-2.9851458,-0.12034045,6.604522
2026-05-10 11:30:47.140,120,1.0886611,-1.1784834,-0.112445585,-2.9851458,-0.12034045,6.604522
2026-05-10 11:30:47.150,121,1.0886611,-1.1784834,-0.112445585,-2.9851458,-0.12034045,6.604522
2026-05-10 11:30:47.160,122,1.0886611,-1.1784834,-0.112445585,-2.9851458,-0.12034045,6.604522
2026-05-10 11:30:47.170,123,1.0886611,-1.1784834,-0.112445585,-2.9851458,-0.12034045,6.604522
2026-05-10 11:30:47.180,124,1.0886611,-1.1784834,-0.112445585,-2.9851458,-0.12034045,6.604522
2026-05-10 11:30:47.190,125,1.0886611,-1.1784834,-0.112445585,-2.9851458,-0.12034045,6.604522
2026-05-10 11:30:47.200,126,1.0886611,-1.1784834,-0.112445585,-2.9851458,-0.12034045,6.604522
2026-05-10 11:30:47.210,127,1.0886611,-1.1784834,-0.112445585,-2.9851458,-0.12034045,6.604522
2026-05-10 11:30:47.220,128,1.0886611,-1.1784834,-0.112445585,-2.9851458,-0.12034045,6.604522
2026-05-10 11:30:47.230,129,1.0886611,-1.1784834,-0.112445585,-2.9625056,-0.18902461250000002,6.592495625
2026-05-10 11:30:47.240,130,1.145143075,-1.1375053499999999,-0.17930923625,-2.894585,-0.3950771,6.5564165
2026-05-10 11:30:47.250,131,1.1639704,-1.123846,-0.20159712,-2.8945850000000006,-0.3950771,6.5564165
2026-05-10 11:30:47.260,132,1.1639704,-1.123846,-0.20159712,-2.894585,-0.3950771,6.5564165
2026-05-10 11:30:47.270,133,1.1639704,-1.123846,-0.20159712,-2.894585,-0.3950771,6.5564165
2026-05-10 11:30:47.280,134,1.1639704,-1.123846,-0.20159712,-2.894585,-0.3950771,6.5564165
2026-05-10 11:30:47.290,135,1.1639704,-1.123846,-0.20159712,-2.894585,-0.3950771,6.5564165
2026-05-10 11:30:47.300,136,1.1639704,-1.123846,-0.20159712,-2.8945850000000006,-0.3950771,6.5564165
2026-05-10 11:30:47.310,137,1.1639704,-1.123846,-0.20159712,-2.894585,-0.3950771,6.5564165
2026-05-10 11:30:47.320,138,1.1639704,-1.123846,-0.20159712,-2.894585,-0.3950771,6.5564165
2026-05-10 11:30:47.330,139,1.1639704,-1.123846,-0.20159712,-2.894585,-0.3950771,6.5564165
2026-05-10 11:30:47.340,140,1.1639704,-1.123846,-0.20159712,-2.894585,-0.3950771,6.5564165
2026-05-10 11:30:47.350,141,1.1639704,-1.123846,-0.20159712,-2.8945850000000006,-0.3950771,6.5564165
2026-05-10 11:30:47.360,142,1.1639704,-1.123846,-0.20159712,-2.894585,-0.3950771,6.5564165
2026-05-10 11:30:47.370,143,1.1896730999999998,-1.1000336499999999,-0.23794071,-2.8787025,-0.561461535,6.5199175
2026-05-10 11:30:47.380,144,1.2153758,-1.0762213,-0.2742843,-2.8628200000000006,-0.7278459700000001,6.4834185
2026-05-10 11:30:47.390,145,1.2824681,-0.9945397,-0.347550765,-2.9700267250000003,-1.0396163425,6.36429975
2026-05-10 11:30:47.400,146,1.3048322,-0.9673125,-0.37197292,-3.0057623,-1.1435398,6.3245935
2026-05-10 11:30:47.410,147,1.3410538,-0.875295,-0.44264776,-3.0057623,-1.1435398,6.3245935
2026-05-10 11:30:47.420,148,1.3410538,-0.875295,-0.44264776,-3.0057623,-1.1435398,6.3245935
2026-05-10 11:30:47.430,149,1.3410538,-0.875295,-0.44264776,-3.0057623,-1.1435398,6.3245935
2026-05-10 11:30:47.440,150,1.3410538,-0.875295,-0.44264776,-3.227812,-1.3698653,6.2227316
2026-05-10 11:30:47.450,151,1.3410538,-0.875295,-0.44264776,-3.227812,-1.3698653,6.2227316
2026-05-10 11:30:47.460,152,1.3559022250000001,-0.828523975,-0.439659795,-3.3086752500000003,-1.4758886,6.188561325
2026-05-10 11:30:47.470,153,1.4004475,-0.6882109,-0.4306959,-3.551265,-1.7939585,6.0860505
2026-05-10 11:30:47.480,154,1.42651615,-0.6350218,-0.3154452375,-3.6631679999999998,-2.3977988750000003,5.891680875
2026-05-10 11:30:47.490,155,1.4352057,-0.6172921,-0.27702835,-3.700469,-2.599079,5.826891
2026-05-10 11:30:47.500,156,1.5420412,-0.55216634,-0.06317442,-3.700469,-2.599079,5.826891
2026-05-10 11:30:47.510,157,1.5420412,-0.55216634,-0.06317442,-3.337615,-3.0158417,5.619197
2026-05-10 11:30:47.520,158,1.5420412,-0.55216634,-0.06317442,-3.337615,-3.0158417,5.619197
2026-05-10 11:30:47.530,159,1.5940157333333334,-0.4974273833333333,0.030814800000000003,-3.337615,-3.0158417000000006,5.619197
2026-05-10 11:30:47.540,160,1.6979648,-0.38794947,0.21879324,-3.337615,-3.0158417,5.619197
2026-05-10 11:30:47.550,161,1.6979648,-0.38794947,0.21879324,-3.337615,-3.0158417,5.619197
2026-05-10 11:30:47.560,162,1.7426830000000002,-0.28436618333333336,0.25753534666666666,-3.1151582666666666,-3.162551233333333,5.504964999999999
2026-05-10 11:30:47.570,163,1.7650421,-0.23257454,0.2769064,-3.0039299,-3.235906,5.447849
2026-05-10 11:30:47.580,164,1.77569815,-0.140907605,0.1894470275,-3.0039299,-3.235906,5.447849
2026-05-10 11:30:47.590,165,1.8076663,0.1340932,-0.07293109,-3.0039299,-3.235906,5.447849
2026-05-10 11:30:47.600,166,1.8076663,0.1340932,-0.07293109,-3.0039299000000006,-3.235906,5.447849000000001
2026-05-10 11:30:47.610,167,1.8076663,0.1340932,-0.07293109,-3.0039299,-3.235906,5.447849
2026-05-10 11:30:47.620,168,1.8076663,0.1340932,-0.07293109,-3.0039299,-3.235906,5.447849
2026-05-10 11:30:47.630,169,1.8076663,0.1340932,-0.07293109,-2.8131871,-3.4080172,5.2161784
2026-05-10 11:30:47.640,170,1.9318199,0.406792,-0.019635292,-3.929849,-2.6574166,5.024367
2026-05-10 11:30:47.650,171,1.9318199,0.406792,-0.019635292,-3.9298489999999995,-2.6574166,5.024367
2026-05-10 11:30:47.660,172,1.9318199,0.406792,-0.019635292,-3.929849,-2.6574166,5.024367
2026-05-10 11:30:47.670,173,1.9318199,0.406792,-0.019635292,-3.929849,-2.6574166,5.024367
2026-05-10 11:30:47.680,174,1.9318199,0.406792,-0.019635292,-3.929849,-2.6574166,5.024367
2026-05-10 11:30:47.690,175,1.9318199,0.406792,-0.019635292,-3.929849,-2.6574166,5.024367
2026-05-10 11:30:47.700,176,1.9318199,0.406792,-0.019635292,-3.9298489999999995,-2.6574166,5.024367
2026-05-10 11:30:47.710,177,1.9318199,0.406792,-0.019635292,-3.929849,-2.6574166,5.024367
2026-05-10 11:30:47.720,178,2.0741456,0.56795996,0.22141537,-3.929849,-2.6574166,5.024367
2026-05-10 11:30:47.730,179,2.2000675,0.68504,0.4145364,-3.9745948,-2.562427,4.942358
2026-05-10 11:30:47.740,180,2.2000675,0.68504,0.4145364,-3.9745948,-2.562427,4.942358
2026-05-10 11:30:47.750,181,2.2000675,0.68504,0.4145364,-3.9745948,-2.562427,4.942358
2026-05-10 11:30:47.760,182,2.39949975,0.9332252000000001,0.7341587,-3.9745948,-2.562427,4.942358
2026-05-10 11:30:47.770,183,2.598932,1.1814104,1.053781,-3.9745948,-2.562427,4.942358
2026-05-10 11:30:47.780,184,2.598932,1.1814104,1.053781,-3.9745948,-2.562427,4.942358
2026-05-10 11:30:47.790,185,2.6261897000000003,1.3941057,1.1421093,-3.7609446,-2.1302397,4.206113
2026-05-10 11:30:47.800,186,2.6534474,1.606801,1.2304376,-2.8545731999999995,-2.1242838,3.1245756
2026-05-10 11:30:47.810,187,2.6534474,1.606801,1.2304376,-2.8545732,-2.1242838,3.1245756
2026-05-10 11:30:47.820,188,2.6534474,1.606801,1.2304376,-2.8545732,-2.1242838,3.1245756
2026-05-10 11:30:47.830,189,2.6534474,1.606801,1.2304376,-2.8545731999999995,-2.1242838,3.1245756
2026-05-10 11:30:47.840,190,2.6534474,1.606801,1.2304376,-2.6698884,-2.0801997333333335,2.7232372
2026-05-10 11:30:47.850,191,2.6534474,1.606801,1.2304376,-2.577546,-2.0581577,2.522568
2026-05-10 11:30:47.860,192,2.6534474,1.606801,1.2304376,-2.577546,-2.0581577,2.522568
2026-05-10 11:30:47.870,193,2.5946026,1.69531225,1.1301269,-2.577546,-2.0581577,2.522568
2026-05-10 11:30:47.880,194,2.5357578,1.7838234999999998,1.0298162,-2.577546,-2.0581577,2.522568
2026-05-10 11:30:47.890,195,2.5357578,1.7838235,1.0298162,-2.577546,-2.0581577,2.522568
2026-05-10 11:30:47.900,196,2.5350260249999996,1.816493125,1.02333715,-2.6649378749999997,-1.9687041250000001,2.4387649500000004
2026-05-10 11:30:47.910,197,2.5328307,1.914502,1.0039,-2.9271135,-1.7003434,2.1873558
2026-05-10 11:30:47.920,198,2.5328307,1.914502,1.0039,-2.9271134999999995,-1.7003434000000002,2.1873558
2026-05-10 11:30:47.930,199,2.5328307,1.914502,1.0039,-2.9271135,-1.7003434,2.1873558
2026-05-10 11:30:47.940,200,2.5328307,1.914502,1.0039,-2.9271135,-1.7003434,2.1873558
2026-05-10 11:30:47.950,201,2.5328307,1.914502,1.0039,-2.9271134999999995,-1.7003434000000002,2.1873558
2026-05-10 11:30:47.960,202,2.5328307,1.914502,1.0039,-2.9271135,-1.7003434,2.1873558
2026-05-10 11:30:47.970,203,2.5433192,1.9135872,1.3257481,-3.5043812,-1.1982121,1.8649716
2026-05-10 11:30:47.980,204,2.5433192,1.9135872,1.3257481,-3.5043811999999996,-1.1982121,1.8649715999999998
2026-05-10 11:30:47.990,205,2.5433192,1.9135872,1.3257481,-3.4988071,-1.1443796499999999,1.7983109000000002
2026-05-10 11:30:48.000,206,2.5433192,1.9135872,1.3257481,-3.493233,-1.0905472,1.7316502
2026-05-10 11:30:48.010,207,2.5433192,1.9135872,1.3257481,-3.493233,-1.0905472,1.7316502
2026-05-10 11:30:48.020,208,2.5433192,1.9135872,1.3257481,-3.493233,-1.0905472,1.7316502
2026-05-10 11:30:48.030,209,2.71582925,1.9865183000000002,1.5174666,-3.493233,-1.0905472,1.7316502
2026-05-10 11:30:48.040,210,2.8883393,2.0594494,1.7091851,-3.493233,-1.0905472,1.7316502
2026-05-10 11:30:48.050,211,2.8883393,2.0594494,1.7091851,-3.1945707999999997,-1.0751228333333334,1.5638658666666665
2026-05-10 11:30:48.060,212,2.90285245,2.06414485,1.7603771,-2.16765535,-1.04618305,1.0002918
2026-05-10 11:30:48.070,213,2.9741676000000004,2.0860974,1.82864325,-1.11040028,-1.0888673,0.53664512
2026-05-10 11:30:48.080,214,3.0309696,2.1033545,1.8457174,-0.48273626,-1.1296426,0.30100384
2026-05-10 11:30:48.090,215,3.0309696,2.1033545,1.8457174,-0.48273626,-1.1296426,0.30100384
2026-05-10 11:30:48.100,216,3.1309753000000002,2.10405575,1.75119975,-0.48273626,-1.1296426,0.30100384
2026-05-10 11:30:48.110,217,3.2945975,2.11381235,1.463866025,0.7932085600000001,-0.901369855,-0.47246608999999995
2026-05-10 11:30:48.120,218,3.3158030000000003,2.1168308,1.3995939999999998,1.2185235,-0.82527894,-0.7302893999999999
2026-05-10 11:30:48.130,219,3.315803,2.1168308,1.399594,1.2185235,-0.82527894,-0.7302894
2026-05-10 11:30:48.140,220,3.315803,2.1168308,1.399594,1.2185235,-0.82527894,-0.7302894
2026-05-10 11:30:48.150,221,3.3158030000000003,2.1168308,1.3995939999999998,1.2185235,-0.82527894,-0.7302893999999999
2026-05-10 11:30:48.160,222,3.3101320999999997,2.0639162,1.060107625,1.406593575,-0.476284005,-1.332640725
2026-05-10 11:30:48.170,223,3.3082418,2.046278,0.9469455,1.41751275,-0.21185571,-1.71599685
2026-05-10 11:30:48.180,224,3.3082418,2.046278,0.9469455,1.4002558,-0.16249016,-1.7768543
2026-05-10 11:30:48.190,225,3.3082418,2.046278,0.9469455,1.4002558,-0.16249016,-1.7768543
2026-05-10 11:30:48.200,226,3.3082418,2.046278,0.9469455,1.4002558,-0.16249016,-1.7768543
2026-05-10 11:30:48.210,227,3.3082418,2.046278,0.9469455,0.9279043,0.5479461,-2.5944974
2026-05-10 11:30:48.220,228,3.3082418,2.046278,0.9469455,0.9279043,0.5479461,-2.5944974
2026-05-10 11:30:48.230,229,3.3082418,2.046278,0.9469455,0.9279043000000001,0.5479461,-2.5944974
2026-05-10 11:30:48.240,230,3.1049983,1.7115938000000002,0.71616983,0.6588182,0.9640981,-3.0098858
2026-05-10 11:30:48.250,231,2.03822872,0.9651173100000001,0.26761722000000004,1.0173452,0.8912015,-2.8538097666666666
2026-05-10 11:30:48.260,232,0.9714591399999999,0.21864082000000007,-0.18093538999999992,1.3758721999999999,0.8183049,-2.6977337333333336
2026-05-10 11:30:48.270,233,-0.09531044,-0.52783567,-0.629488,1.7343992,0.7454083,-2.5416577
2026-05-10 11:30:48.280,234,-0.09531044,-0.52783567,-0.629488,1.7343992,0.7454083,-2.5416577
2026-05-10 11:30:48.290,235,-0.09531044,-0.52783567,-0.629488,1.7343992,0.7454083,-2.5416577
2026-05-10 11:30:48.300,236,-0.09531044,-0.52783567,-0.629488,1.4795665533333333,0.7398087000000001,-2.539570466666667
2026-05-10 11:30:48.310,237,-0.30184686,-0.51789606,-0.56460613,0.026572637,0.49938235,-1.7563903
2026-05-10 11:30:48.320,238,-0.9820695,-0.6267439,-0.33343408,-0.5131268,0.1414153,-0.8770498
2026-05-10 11:30:48.330,239,-0.9820695,-0.6267439,-0.33343408,-0.5131268,0.1414153,-0.8770498
2026-05-10 11:30:48.340,240,-0.9820695,-0.6267439,-0.33343408,-0.5131268,0.1414153,-0.8770498
2026-05-10 11:30:48.350,241,-0.9820695,-0.6267439,-0.33343408,-0.5131268,0.1414153,-0.8770498
2026-05-10 11:30:48.360,242,-1.1598847,-0.52381104,-0.016281437,-1.9943223,0.19303341,0.9474519999999998
2026-05-10 11:30:48.370,243,-1.1598847,-0.52381104,-0.016281437,-1.9943223,0.19303341,0.947452
2026-05-10 11:30:48.380,244,-1.1598847,-0.52381104,-0.016281437,-2.084348475,0.2191479,1.090738075
2026-05-10 11:30:48.390,245,-1.1598847,-0.52381104,-0.016281437,-2.1143572,0.22785273000000003,1.1385001
2026-05-10 11:30:48.400,246,-1.01755935,-0.5726248700000001,0.1593690615,-2.33762845,0.320627895,1.74256955
2026-05-10 11:30:48.410,247,-0.875234,-0.6214387,0.33501956,-2.5608997,0.41340306,2.346639
2026-05-10 11:30:48.420,248,-0.875234,-0.6214387,0.33501955999999994,-2.5608997,0.41340306,2.346639
2026-05-10 11:30:48.430,249,-0.875234,-0.6214387,0.33501956,-2.5608997,0.41340306,2.346639
2026-05-10 11:30:48.440,250,-0.875234,-0.6214387,0.33501956,-2.5608997,0.41340306,2.346639
2026-05-10 11:30:48.450,251,-0.7998230999999999,-0.6565017233333333,0.36784668,-2.5608997,0.41340306,2.346639
2026-05-10 11:30:48.460,252,-0.6490013,-0.72662777,0.43350092,-2.4697281999999996,0.2940552675,3.099148575
2026-05-10 11:30:48.470,253,-0.6490013,-0.72662777,0.43350092,-2.33182535,0.1246165158,3.5884516
2026-05-10 11:30:48.480,254,-0.12537317,-0.8051689,0.4343546,-2.224313,-0.0050396384,3.8269181
2026-05-10 11:30:48.490,255,-0.278613835,-0.79419265,0.44328805,-1.96271,-0.3237585692,4.1737368
2026-05-10 11:30:48.500,256,-0.4318545,-0.7832164,0.4522215,-1.3584116,-0.9424124,4.9162436
2026-05-10 11:30:48.510,257,-0.4318545,-0.7832164,0.4522215,-1.3584116,-0.9424124,4.9162436
2026-05-10 11:30:48.520,258,-0.14334170999999998,-0.8125880433333333,0.4052472233333333,-1.1484266666666667,-1.0939069666666665,5.169956233333333
2026-05-10 11:30:48.530,259,0.43368387,-0.87133133,0.31129867,-0.6728298850000001,-1.45191215,5.762215475
2026-05-10 11:30:48.540,260,0.5699723175,-0.8752644350000001,0.2351509225,-0.50594914,-1.6169603,6.0167174
2026-05-10 11:30:48.550,261,0.6154018,-0.87657547,0.20976834,-0.50594914,-1.6169603,6.0167174
2026-05-10 11:30:48.560,262,0.6154018,-0.87657547,0.20976834,-0.4788419975,-1.6472362999999999,6.136332375
2026-05-10 11:30:48.570,263,0.6154018,-0.87657547,0.20976834,-0.39752057,-1.7380643,6.4951773
2026-05-10 11:30:48.580,264,0.6154018,-0.87657547,0.20976834,-0.39752057,-1.7380643000000002,6.495177299999999
2026-05-10 11:30:48.590,265,0.75071454,-0.9053577,0.16494864,-0.39752057,-1.7380643,6.4951773
2026-05-10 11:30:48.600,266,0.75071454,-0.9053577,0.16494864,-0.39752057,-1.7380643,6.4951773
2026-05-10 11:30:48.610,267,0.940054835,-0.9395365,0.108161798,-0.827187885,-1.2539536,7.15727905
2026-05-10 11:30:48.620,268,1.2071842000000002,-0.9503603666666667,-0.0047360486666666686,-1.2568552,-0.7698429,7.8193808
2026-05-10 11:30:48.630,269,1.47892775,-0.90508335,-0.12817821499999998,-1.42316325,-0.72105005,7.87458755
2026-05-10 11:30:48.640,270,1.5594813,-0.8859054,-0.1589727,-1.5894713,-0.6722572,7.9297943
2026-05-10 11:30:48.650,271,1.5594813,-0.8859054,-0.1589727,-1.5894713,-0.6722572,7.9297943
2026-05-10 11:30:48.660,272,1.5594813,-0.8859054,-0.1589727,-1.5894713000000003,-0.6722572000000001,7.9297943
2026-05-10 11:30:48.670,273,1.7029651,-0.7888265,-0.17257105,-2.1930063,-0.8049677,7.9943933
2026-05-10 11:30:48.680,274,1.7029651,-0.7888265,-0.17257105,-2.1930063,-0.8049677,7.9943933
2026-05-10 11:30:48.690,275,1.7029651,-0.7888265,-0.17257105000000003,-2.3878722999999997,-0.9339620333333333,7.928420033333333
2026-05-10 11:30:48.700,276,1.9833473,-0.646867,-0.12397064,-2.4853053,-0.9984592,7.8954334
2026-05-10 11:30:48.710,277,1.9833473,-0.646867,-0.12397064,-2.4853053,-0.9984592,7.8954334
2026-05-10 11:30:48.720,278,2.2344596,-0.4735032,-0.08604161,-2.6671903,-1.1823297,7.530136
2026-05-10 11:30:48.730,279,2.2344596,-0.47350319999999996,-0.08604161,-2.6671903,-1.1823297,7.530136
2026-05-10 11:30:48.740,280,2.2344596,-0.4735032,-0.08604161,-2.6671903,-1.1823297,7.530136
2026-05-10 11:30:48.750,281,2.2344596,-0.4735032,-0.08604161,-2.6671903,-1.1823297,7.530136
2026-05-10 11:30:48.760,282,2.2344596,-0.47350319999999996,-0.08604161,-2.6671903,-1.1823297,7.530136
2026-05-10 11:30:48.770,283,2.158357625,-0.3692593225,-0.11636350250000001,-2.8345674250000004,-1.1863385,7.135058925
2026-05-10 11:30:48.780,284,1.4809401,-0.0851879,-0.12201932,-3.9608502,-1.0392345,5.8244476
2026-05-10 11:30:48.790,285,1.3571219,-0.1320199,0.045307524999999994,-4.0988296,-1.0290789,5.9499803
2026-05-10 11:30:48.800,286,1.2333037,-0.17885190000000004,0.21263437,-4.236809,-1.0189233,6.075513
2026-05-10 11:30:48.810,287,1.187112025,-0.1967797725,0.5702771799999999,-4.0135757,-1.19645595,6.4067546250000005
2026-05-10 11:30:48.820,288,1.1717148,-0.20275573,0.68949145,-3.9391646,-1.2556335,6.5171685
2026-05-10 11:30:48.830,289,1.1717148,-0.20275573,0.6894914499999999,-2.8661798,-1.7281377666666666,6.910056566666667
2026-05-10 11:30:48.840,290,1.1717148,-0.20275573,0.68949145,-2.3296874,-1.9643899,7.1065006
2026-05-10 11:30:48.850,291,1.1717148,-0.20275573,0.68949145,-2.3296874,-1.9643899,7.1065006
2026-05-10 11:30:48.860,292,1.3375780499999999,-0.1201899385,0.934109375,-1.7968602,-2.1325306,7.1116166
2026-05-10 11:30:48.870,293,1.5034412999999998,-0.037624147,1.1787273,-1.264033,-2.3006713,7.1167326
2026-05-10 11:30:48.880,294,2.1936645500000003,0.3673689765,0.846299365,-0.46555572,-2.42185165,6.6461375
2026-05-10 11:30:48.890,295,2.8838878,0.7723621,0.51387143,0.310014115,-2.4952318,5.9247822
2026-05-10 11:30:48.900,296,2.7803451333333338,0.9795083666666667,0.08445612000000002,-0.14732034666666668,-2.181807033333333,4.966589066666667
2026-05-10 11:30:48.910,297,2.5732598,1.3938009,-0.7743745,-0.9245446,-1.8417587,4.554764
2026-05-10 11:30:48.920,298,2.4033108,1.4797815000000003,-0.9010892,-3.8493674,-0.66675943,3.794542
2026-05-10 11:30:48.930,299,2.4033108,1.4797815,-0.9010892,-3.8493674,-0.66675943,3.794542
2026-05-10 11:30:48.940,300,2.361738275,1.428924875,-0.752986035,-3.8493674,-0.66675943,3.794542
2026-05-10 11:30:48.950,301,2.2370207,1.276355,-0.30867654,-3.8493674,-0.66675943,3.794542
2026-05-10 11:30:48.960,302,2.2370207,1.276355,-0.30867654,-3.8493674,-0.66675943,3.794542
2026-05-10 11:30:48.970,303,2.2370207,1.276355,-0.30867654,-4.3805147,-0.4633412975,3.65018695
2026-05-10 11:30:48.980,304,2.2370207,1.276355,-0.30867654,-5.9739566,0.1469131,3.2171218
2026-05-10 11:30:48.990,305,2.248408575,1.16348245,0.8709807,-5.8723623,0.21647538750000003,2.3143775250000003
2026-05-10 11:30:49.000,306,2.4522772,1.3078811,1.5793605,-3.4912477,-0.7838928,1.4391985
2026-05-10 11:30:49.010,307,2.4522772,1.3078811,1.5793605,-2.5817074,-1.274913975,1.2071461
2026-05-10 11:30:49.020,308,2.589663325,1.4327359999999998,1.64375445,-2.2785273,-1.4385877,1.1297953
2026-05-10 11:30:49.030,309,2.6354587,1.4743543,1.6652191,-2.2785273,-1.4385877,1.1297953
2026-05-10 11:30:49.040,310,2.70136195,1.5219942999999998,1.5914953,-2.2785273,-1.4385877,1.1297953
2026-05-10 11:30:49.050,311,2.8990717,1.6649143,1.3703239,-2.2785273,-1.4385877,1.1297953
2026-05-10 11:30:49.060,312,2.8990717,1.6649143,1.3703239,-0.36163223,-2.0966423,0.4072944
2026-05-10 11:30:49.070,313,3.2098215,1.7637614,0.7388845700000001,0.28252518,-1.4894422,-0.32452217
2026-05-10 11:30:49.080,314,3.2098215,1.7637614,0.73888457,0.267368085,-1.3290518900000001,-0.4169537275
2026-05-10 11:30:49.090,315,3.2098215,1.7637614,0.73888457,0.2218968,-0.84788096,-0.6942484
2026-05-10 11:30:49.100,316,3.3604398,1.7020506,0.6166213,-0.0125227375,0.36942077,-1.2751812
2026-05-10 11:30:49.110,317,3.3756845,1.7103437,0.5670453,-0.0936151,0.9983065,-1.6194037
2026-05-10 11:30:49.120,318,3.30501,1.6906475,0.51557887,0.052687127,1.6271923,-2.398715
2026-05-10 11:30:49.130,319,3.30501,1.6906475,0.51557887,0.5725334,1.3304645,-2.9657507
2026-05-10 11:30:49.140,320,3.30501,1.6906475,0.51557887,0.5725334,1.3304645,-2.9657506999999996
2026-05-10 11:30:49.150,321,3.30501,1.6906475,0.51557887,0.5725334,1.3304645,-2.9657507
2026-05-10 11:30:49.160,322,3.2630562,1.6380021000000002,0.5347669566666666,0.5725334,1.3304645,-2.9657506999999996
2026-05-10 11:30:49.170,323,3.2420793,1.6116794,0.544361,0.5725334,1.3304645,-2.9657507
2026-05-10 11:30:49.180,324,3.2420793,1.6116794,0.544361,0.5725334,1.3304645,-2.9657507
2026-05-10 11:30:49.190,325,3.196024875,1.5532308499999998,0.523186025,0.8096255,1.1229230000000001,-3.173521175
2026-05-10 11:30:49.200,326,2.9253535,1.3164793,0.41667065,1.4307991,0.61544675,-3.7696495
2026-05-10 11:30:49.210,327,2.9253535,1.3164793,0.41667065,1.4307991,0.61544675,-3.7696495
2026-05-10 11:30:49.220,328,2.8658226,1.2816754499999998,0.3692441025,1.4516067,0.6057874375000001,-3.830239625
2026-05-10 11:30:49.230,329,2.6872299,1.1772639,0.22696446,1.5140295000000001,0.5768095,-4.01201
2026-05-10 11:30:49.240,330,2.6715279,1.1751600500000001,0.1582409375,1.4083497999999999,0.60231312,-4.078136150000001
2026-05-10 11:30:49.250,331,2.6558259,1.1730562,0.089517415,1.3026701,0.62781674,-4.1442623
2026-05-10 11:30:49.260,332,2.666131,1.1425667,0.058296088,0.6808474775,0.9888380600000001,-4.588323575
2026-05-10 11:30:49.270,333,2.666131,1.1425667,0.058296088,0.47357327,1.1091785,-4.736344
2026-05-10 11:30:49.280,334,2.666131,1.1425667,0.058296088,0.47357327,1.1091785,-4.736344
2026-05-10 11:30:49.290,335,2.666131,1.1425667,0.058296088,0.51782282,1.0666852,-4.68705475
2026-05-10 11:30:49.300,336,2.666131,1.1425667,0.058296088,0.65057147,0.9392052999999999,-4.539187
2026-05-10 11:30:49.310,337,2.628263,1.11201615,0.084120759,0.65057147,0.9392053,-4.539187
2026-05-10 11:30:49.320,338,2.590395,1.0814656,0.10994543,0.65057147,0.9392053,-4.539187
2026-05-10 11:30:49.330,339,2.590395,1.0814656,0.10994543,0.65057147,0.9392053,-4.539187
2026-05-10 11:30:49.340,340,2.4190842666666668,1.0134534666666666,0.22527737,0.65057147,0.9392052999999999,-4.539187
2026-05-10 11:30:49.350,341,2.3334289,0.9794474,0.28294334,0.65057147,0.9392053,-4.539187
2026-05-10 11:30:49.360,342,2.3334289,0.9794474,0.28294334,0.65057147,0.9392053,-4.539187
2026-05-10 11:30:49.370,343,2.3334289,0.9794474,0.28294334,0.65057147,0.9392053,-4.539187
2026-05-10 11:30:49.380,344,2.0633521666666668,0.8270604666666667,0.4836664333333333,0.4128939933333333,1.7656550333333332,-5.106120733333333
2026-05-10 11:30:49.390,345,1.7269301,0.5596668,0.76675206,0.6835582,1.9506454,-5.254663
2026-05-10 11:30:49.400,346,1.7269301,0.5596668,0.76675206,1.1768318666666666,1.9210184000000001,-5.348023666666666
2026-05-10 11:30:49.410,347,1.7269301,0.5596668,0.76675206,1.4234687,1.9062049,-5.394704
2026-05-10 11:30:49.420,348,1.548886075,0.37489993,0.7329390825,1.552666725,1.90250155,-5.425209
2026-05-10 11:30:49.430,349,1.2694033,0.17458336,0.57058203,2.583959925,1.91086285,-5.6177456999999995
2026-05-10 11:30:49.440,350,1.2694033,0.17458336,0.57058203,2.7985263000000002,1.9173533,-5.6514196
2026-05-10 11:30:49.450,351,1.2694033,0.17458336,0.57058203,2.7985263000000002,1.9173533,-5.6514196
2026-05-10 11:30:49.460,352,1.2694033,0.17458336,0.57058203,2.7985263000000002,1.9173533,-5.6514196
2026-05-10 11:30:49.470,353,1.2694033,0.17458336,0.57058203,2.7985263,1.9173533,-5.6514196
2026-05-10 11:30:49.480,354,1.2694033,0.17458336,0.57058203,2.7985263,1.9173533,-5.6514196
2026-05-10 11:30:49.490,355,1.2694033,0.17458336,0.57058203,2.7985263,1.9173533,-5.6514196
2026-05-10 11:30:49.500,356,1.2694033,0.17458336,0.57058203,2.7985263,1.9173533,-5.6514196
2026-05-10 11:30:49.510,357,1.2694033,0.17458336,0.57058203,2.7985263,1.9173533,-5.6514196
2026-05-10 11:30:49.520,358,1.2694033,0.17458336,0.57058203,2.7985263000000002,1.9173533,-5.6514196
2026-05-10 11:30:49.530,359,1.2694033,0.17458336,0.57058203,2.7985263,1.9173533,-5.6514196
2026-05-10 11:30:49.540,360,1.21632095,0.082382857,0.44063544,2.9069548999999997,1.9374736750000001,-5.6312992
2026-05-10 11:30:49.550,361,1.1632386,-0.009817646,0.31068885,3.2322407,1.9978348,-5.570938000000001
2026-05-10 11:30:49.560,362,1.23394395,-0.08974609124999999,0.123437085,3.25610265,1.9802724,-5.56872375
2026-05-10 11:30:49.570,363,1.2459264,-0.16836348,0.02872119,3.3276885,1.9275852,-5.562081
2026-05-10 11:30:49.580,364,1.2228762666666668,-0.20558109666666669,0.01699286276666667,3.3160311666666664,1.8711311000000002,-5.5894681
2026-05-10 11:30:49.590,365,1.176776,-0.28001633,-0.0064637917,3.1801646,1.6297885,-5.696624
2026-05-10 11:30:49.600,366,1.176776,-0.28001633,-0.0064637917,3.1801646,1.6297885,-5.696624
2026-05-10 11:30:49.610,367,1.176776,-0.28001633,-0.0064637917,3.1801646,1.6297885,-5.696624
2026-05-10 11:30:49.620,368,1.11974525,-0.3697929275,-0.008750510425,3.069865175,1.551674125,-5.687117375
2026-05-10 11:30:49.630,369,1.100735,-0.39971846,-0.00951275,3.0330987,1.525636,-5.6839485
2026-05-10 11:30:49.640,370,1.100735,-0.39971846,-0.00951275,3.0330987,1.525636,-5.6839485
2026-05-10 11:30:49.650,371,1.100735,-0.39971846000000005,-0.00951275,3.0330987,1.5256359999999998,-5.6839485
2026-05-10 11:30:49.660,372,1.1438625,-0.4746161125,-0.027806499999999998,2.9126818500000002,1.50028505,-5.62774895
2026-05-10 11:30:49.670,373,1.2385479,-0.58119243,-0.07469948,2.792265,1.4749341,-5.5715494
2026-05-10 11:30:49.680,374,1.2385479,-0.58119243,-0.07469948,2.602795,1.5160656999999997,-5.567374866666666
2026-05-10 11:30:49.690,375,1.254798825,-0.6836222325,-0.06212252775,2.0345631,1.54075485,-5.6734108999999995
2026-05-10 11:30:49.700,376,1.1875083,-0.8111143649999999,0.008232187,1.8296177999999998,1.47798845,-5.7215165
2026-05-10 11:30:49.710,377,0.91602904,-1.0215839,0.02262327,1.4486669,1.173014,-5.688988
2026-05-10 11:30:49.720,378,0.9160290400000001,-1.0215839,0.02262327,1.4486669,1.173014,-5.688987999999999
2026-05-10 11:30:49.730,379,0.91602904,-1.0215839,0.02262327,1.4486669,1.173014,-5.688988
2026-05-10 11:30:49.740,380,0.91602904,-1.0215839,0.02262327,1.4486669,1.173014,-5.688988
2026-05-10 11:30:49.750,381,0.7695164466666666,-1.0806524333333334,-0.05437309666666667,1.1105530333333333,1.3706288666666666,-5.516927333333332
2026-05-10 11:30:49.760,382,0.69626015,-1.1101867,-0.09287128,0.9414961,1.4694363,-5.430897
2026-05-10 11:30:49.770,383,0.69626015,-1.1101867,-0.09287128,0.9414961,1.4694363,-5.430897
2026-05-10 11:30:49.780,384,0.69626015,-1.1101867,-0.09287128,0.9414960999999998,1.4694363,-5.430896999999999
2026-05-10 11:30:49.790,385,0.69626015,-1.1101867,-0.09287128,0.9414961,1.4694363,-5.430897
2026-05-10 11:30:49.800,386,0.649702545,-1.08414865,-0.11561651,0.85910563,1.50074315,-5.418832650000001
2026-05-10 11:30:49.810,387,0.60314494,-1.0581106,-0.13836174,0.77671516,1.53205,-5.4067683
2026-05-10 11:30:49.820,388,0.35508169333333334,-1.0577446000000001,-0.20946345333333335,0.70697472,1.4136439333333335,-5.488420766666667
2026-05-10 11:30:49.830,389,0.23105007,-1.0575616,-0.24501431,0.6721045,1.3544409,-5.529247
2026-05-10 11:30:49.840,390,0.23105007,-1.0575616,-0.24501431,0.6721045,1.3544409,-5.529247
2026-05-10 11:30:49.850,391,-0.34069057666666663,-1.0154454,-0.3257100766666667,0.6892087,0.8367326533333334,-5.1923547333333335
2026-05-10 11:30:49.860,392,-0.6265609,-0.9943873,-0.36605796,0.6977608,0.57787853,-5.0239086
2026-05-10 11:30:49.870,393,-0.6265609,-0.9943873,-0.36605796,0.6977608,0.57787853,-5.0239086
2026-05-10 11:30:49.880,394,-0.6265609,-0.9943873,-0.36605796,0.6977607999999998,0.57787853,-5.0239086
2026-05-10 11:30:49.890,395,-0.86620915,-0.8055348,-0.37191194,0.7570911,0.192651625,-4.20107305
2026-05-10 11:30:49.900,396,-1.0101808,-0.5140544,-0.43008605,0.6491970499999999,-0.54546447,-2.5267677500000003
2026-05-10 11:30:49.910,397,-0.7844766200000001,-0.4281550666666667,-0.21361002000000004,-0.9438377366666666,0.15597426333333334,-0.49378274333333333
2026-05-10 11:30:49.920,398,-0.8250481,-0.55686176,0.3305071,-2.37924375,1.2179125499999999,1.57076355
2026-05-10 11:30:49.930,399,-0.7143099300000001,-0.5991203,0.5864367,-1.5482379,0.8901834000000001,3.8709004
2026-05-10 11:30:49.940,400,-0.71430993,-0.5991203,0.5864367,-1.5482379,0.8901834,3.8709004
2026-05-10 11:30:49.950,401,-0.7143099300000001,-0.5991203,0.5864367,-1.5482379,0.8901834000000001,3.8709004
2026-05-10 11:30:49.960,402,-0.71430993,-0.5991203,0.5864367,-1.5482379,0.8901834,3.8709004
2026-05-10 11:30:49.970,403,-0.71430993,-0.5991203,0.5864367,-1.34245269,0.809320115,4.07454755
2026-05-10 11:30:49.980,404,-0.4114874,-0.63772017,0.67906404,-0.72509706,0.56673026,4.685489
2026-05-10 11:30:49.990,405,-0.4114874,-0.63772017,0.67906404,-0.72509706,0.56673026,4.685489
2026-05-10 11:30:50.000,406,0.19362411999999998,-0.6981809925,0.4713384825,0.397558725,0.23377050075000003,5.47736135
2026-05-10 11:30:50.010,407,0.39532796,-0.7183346,0.40209663,1.5163202,-0.032375857,6.2186084
2026-05-10 11:30:50.020,408,0.39532796,-0.7183346,0.40209663,1.5163202,-0.032375857,6.2186084
2026-05-10 11:30:50.030,409,0.39532796,-0.7183346,0.40209663,1.5163202,-0.032375857,6.2186084
2026-05-10 11:30:50.040,410,0.39532796,-0.7183346,0.40209663,1.5163202,-0.032375857,6.2186084
2026-05-10 11:30:50.050,411,0.4360823733333333,-0.7206924466666668,0.36168777,1.6221017333333334,-0.033495778000000004,6.3230154
2026-05-10 11:30:50.060,412,1.2033019,-0.62735367,-0.42984214,1.5268577,-0.045662176,7.439728
2026-05-10 11:30:50.070,413,1.3044206250000001,-0.586177485,-0.48714732,1.5268577,-0.045662176,7.439728
2026-05-10 11:30:50.080,414,1.6077768,-0.46264893,-0.65906286,1.5268577,-0.045662176,7.439728
2026-05-10 11:30:50.090,415,1.6077768,-0.46264893,-0.65906286,0.72356987,-0.11453723,7.7020946
2026-05-10 11:30:50.100,416,1.92916745,-0.280473675,-0.72668873,-0.10533607000000002,-0.0915152525,7.6829669
2026-05-10 11:30:50.110,417,2.2505581,-0.09829842,-0.7943146,-0.745713775,-0.0400116761,7.5605265
2026-05-10 11:30:50.120,418,2.2505581,-0.09829842,-0.7943146,-1.1097895,0.0038179078000000004,7.444461999999999
2026-05-10 11:30:50.130,419,2.2505581,-0.09829842,-0.7943146,-1.1097895,0.0038179078,7.444462
2026-05-10 11:30:50.140,420,2.2505581,-0.09829842,-0.7943146,-2.148298525,0.14126258695,6.946110624999999
2026-05-10 11:30:50.150,421,1.74766295,-0.0018293750999999999,-0.47591193,-2.4944682,0.18707748,6.7799935
2026-05-10 11:30:50.160,422,1.4984411,-0.0052442085,-0.31892106,-3.096985,0.14665856666666666,6.603351433333333
2026-05-10 11:30:50.170,423,1.4984411,-0.0052442085,-0.31892106,-3.3982434,0.12644911,6.5150304
2026-05-10 11:30:50.180,424,1.3961333,-0.019559066375,-0.23258980049999997,-3.421761725,0.07990881250000001,6.5222463
2026-05-10 11:30:50.190,425,1.0892099,-0.06250364,0.026403978000000005,-3.4923167,-0.05971208,6.543893999999999
2026-05-10 11:30:50.200,426,1.0892099,-0.06250364,0.026403978,-3.4923167,-0.05971208,6.543894
2026-05-10 11:30:50.210,427,0.973090325,-0.07521779749999999,0.240257922,-3.2096386999999997,-0.446160695,6.75384075
2026-05-10 11:30:50.220,428,1.8771826999999999,0.5179571,-0.05799119,-0.7644979,-1.7482964,5.258786
2026-05-10 11:30:50.230,429,1.8771827,0.5179571,-0.05799119,-0.7644979,-1.7482964,5.258786
2026-05-10 11:30:50.240,430,1.8771827,0.5179571,-0.05799119,-0.7644979,-1.7482964,5.258786
2026-05-10 11:30:50.250,431,1.7699203,0.5973519,-0.09811548,-0.7644979,-1.7482964,5.258786
2026-05-10 11:30:50.260,432,1.7699203,0.5973519,-0.09811547999999999,-0.7125743333333333,-1.8191567333333334,5.128111866666667
2026-05-10 11:30:50.270,433,1.4349312749999998,0.86599563,-0.01161653,-0.42917102,-2.4242187,4.48901965
2026-05-10 11:30:50.280,434,1.255393375,0.9619616424999999,0.0473350825,-0.310510445,-2.383672425,4.23451795
2026-05-10 11:30:50.290,435,0.9995705,1.0564641,-0.079029,-0.3023783,-2.349693,4.2051964
2026-05-10 11:30:50.300,436,1.01194925,1.06533655,-0.16138136,-0.80481495,-1.519909,4.00742875
2026-05-10 11:30:50.310,437,1.3597134249999998,1.1580553999999998,-0.321863285,-1.770860125,-0.620028225,3.5243107
2026-05-10 11:30:50.320,438,1.9664561666666664,1.6842648666666669,0.26617406666666665,-4.409225533333333,-1.179479,0.7557421
2026-05-10 11:30:50.330,439,3.081018075,2.2120040750000003,1.275013425,-1.430341,-0.01038471,-0.81321436
2026-05-10 11:30:50.340,440,3.1064007,2.1695168,1.0745139,-1.430341,-0.01038471,-0.81321436
2026-05-10 11:30:50.350,441,3.1064007,2.1695168,1.0745139,-1.0646363266666667,0.06602435333333333,-1.1018482066666666
2026-05-10 11:30:50.360,442,2.8663256,1.867731,0.48899198,0.85139346,0.24755314,-2.6974282
2026-05-10 11:30:50.370,443,2.8663256,1.867731,0.48899198,0.85139346,0.24755314,-2.6974282
2026-05-10 11:30:50.380,444,2.8663256,1.867731,0.48899198,0.8900307,0.26832256,-2.7473664
2026-05-10 11:30:50.390,445,2.8440073,1.8485836,0.44264776,0.8900307,0.26832256,-2.7473664
2026-05-10 11:30:50.400,446,2.8180301666666665,1.7871572,0.2823538666666667,0.8900307,0.26832256,-2.7473664
2026-05-10 11:30:50.410,447,2.87708855,1.67945775,0.19034647,0.7635052,0.555734665,-3.0745611
2026-05-10 11:30:50.420,448,2.9491355,1.6024715,0.17848602,0.613346875,0.6955464474999999,-3.18463145
2026-05-10 11:30:50.430,449,2.9813325,1.5647864,0.19051923999999998,0.4266384733333333,0.9316713333333334,-3.4025703333333333
2026-05-10 11:30:50.440,450,3.028042525,1.4705279,0.2204396825,0.312495745,1.1451432750000001,-3.675690725
2026-05-10 11:30:50.450,451,2.9749906,1.413863,0.23800169,0.28008172,1.2388347,-3.8588357
2026-05-10 11:30:50.460,452,2.7316024,1.2934088000000001,0.2798740433333333,0.29901853333333334,1.2815952333333334,-4.1157045666666665
2026-05-10 11:30:50.470,453,2.6099083,1.2331817,0.30081022,0.30848694,1.3029755,-4.244139
2026-05-10 11:30:50.480,454,2.6099083,1.2331817,0.30081022,0.30848694,1.3029755,-4.244139
2026-05-10 11:30:50.490,455,2.1471984,0.98993576,0.40008432,0.3592269425,1.30160105,-4.235128749999999
2026-05-10 11:30:50.500,456,2.1471984,0.98993576,0.40008432,0.51144695,1.2974777,-4.208098
2026-05-10 11:30:50.510,457,2.0956710000000003,0.9677596733333333,0.3977061333333333,0.5583817533333333,1.2970705,-4.1870232
2026-05-10 11:30:50.520,458,2.0441436,0.9455835866666668,0.39532794666666665,0.6053165566666666,1.2966632999999999,-4.1659484
2026-05-10 11:30:50.530,459,1.9926162,0.9234075,0.39294976,0.65225136,1.2962561,-4.1448736
2026-05-10 11:30:50.540,460,1.9926162,0.9234075,0.39294976,0.65225136,1.2962561,-4.1448736
2026-05-10 11:30:50.550,461,1.9926162,0.9234075,0.39294976,0.65225136,1.2962561,-4.1448736
2026-05-10 11:30:50.560,462,1.8385829,0.8511472,0.31471348,0.8507062249999999,1.3615423,-3.9083158
2026-05-10 11:30:50.570,463,1.8362047,0.8373659,0.29032181333333335,0.8732319,1.4011722000000002,-3.8707476
2026-05-10 11:30:50.580,464,1.78967755,0.73772595,0.184218065,0.9367618649999999,1.5567901,-4.068706125
2026-05-10 11:30:50.590,465,1.7479068,0.6656486,0.12689765,1.1162035,1.7831156,-4.533078
2026-05-10 11:30:50.600,466,1.5787709666666665,0.5601749666666667,0.13779259333333335,1.2783882333333334,1.7783305333333335,-4.5561891333333335
2026-05-10 11:30:50.610,467,0.93237152,0.056253284999999986,0.10717088699999999,1.9182696,1.6096299,-4.4570255
2026-05-10 11:30:50.620,468,0.62424374,-0.23672113,0.054759294,2.4770586,1.4433218,-4.3463063
2026-05-10 11:30:50.630,469,0.62424374,-0.23672112999999997,0.05475929399999999,2.4770586,1.4433218000000003,-4.3463063
2026-05-10 11:30:50.640,470,0.62424374,-0.23672113,0.054759294,2.4770586,1.4433218,-4.3463063
2026-05-10 11:30:50.650,471,0.62424374,-0.23672113,0.054759294,2.4770586,1.4433218,-4.3463063
2026-05-10 11:30:50.660,472,0.6165197133333334,-0.2771909633333333,0.026871487666666666,2.4770586,1.4433218000000003,-4.3463063
2026-05-10 11:30:50.670,473,0.60107166,-0.35813063,-0.028904125,2.4770586,1.4433218,-4.3463063
2026-05-10 11:30:50.680,474,0.60107166,-0.35813063,-0.028904125,2.7999008,1.2449434,-4.2755985
2026-05-10 11:30:50.690,475,0.589988695,-0.3906172925,-0.08271824375,2.7999008,1.2449434,-4.2755985
2026-05-10 11:30:50.700,476,0.5567398,-0.48807728,-0.24416059999999998,2.832174866666667,1.1720468,-4.284099666666667
2026-05-10 11:30:50.710,477,0.5301528666666666,-0.5069808266666667,-0.28326857333333333,2.8674015333333336,1.0249300666666665,-4.298658666666667
2026-05-10 11:30:50.720,478,0.37368035000000005,-0.5991813,-0.40923121999999995,2.3435845,1.0864239,-4.15648
2026-05-10 11:30:50.730,479,0.3677348775,-0.643467425,-0.41497850000000003,1.963435425,1.0131200575000001,-4.0275874
2026-05-10 11:30:50.740,480,0.3810181733333333,-0.7587638333333334,-0.38870154999999995,0.9736173999999999,0.72010831,-3.7408370000000004
2026-05-10 11:30:50.750,481,0.38441268,-0.7752892,-0.37947336,0.5689446275,0.6715699675,-3.669009375
2026-05-10 11:30:50.760,482,0.38441268,-0.7752892,-0.37947336,0.021176663333333345,0.6612616466666666,-3.581808433333333
2026-05-10 11:30:50.770,483,0.38441268,-0.7752892,-0.37947336,0.48563787,0.6062838,-3.6346483
2026-05-10 11:30:50.780,484,0.443653935,-0.79205841,-0.13732508,-0.21807888749999998,0.798477255,-3.59742355
2026-05-10 11:30:50.790,485,0.4370377266666667,-0.7819968466666666,-0.044819690999999995,-0.45265114,0.8625417399999998,-3.5850153
2026-05-10 11:30:50.800,486,0.2333520475,-0.7507145425,0.01957431275,-0.17379115750000002,0.930958635,-3.710395475
2026-05-10 11:30:50.810,487,-0.06500379,-0.72052985,0.045856334,0.3359759,0.88040954,-3.7659843
2026-05-10 11:30:50.820,488,-0.06500379,-0.72052985,0.045856334,0.3359759,0.88040954,-3.7659843
2026-05-10 11:30:50.830,489,-0.32471406999999997,-0.697144335,-0.031800639,0.569021,0.69218667,-3.5973854000000003
2026-05-10 11:30:50.840,490,-0.48246717,-0.6758321,-0.08323657,0.8020661,0.5039638,-3.4287865
2026-05-10 11:30:50.850,491,-0.5388932133333334,-0.5663745000000001,-0.11222199666666666,1.1829914333333333,-0.18376863200000002,-2.6900978
2026-05-10 11:30:50.860,492,-0.6517453,-0.3474593,-0.17019285,1.3199271,-0.45631635,-2.4194846
2026-05-10 11:30:50.870,493,-0.6517453,-0.3474593,-0.17019285,1.3199271,-0.45631635,-2.4194846
2026-05-10 11:30:50.880,494,-0.6517453,-0.34745929999999997,-0.17019284999999998,1.3199271,-0.45631635,-2.4194846
2026-05-10 11:30:50.890,495,-0.676350435,-0.22772670500000003,-0.208182875,1.4483615,-0.84620106,-1.8532125
2026-05-10 11:30:50.900,496,-0.70095557,-0.10799411,-0.2461729,1.4483615,-0.84620106,-1.8532125
2026-05-10 11:30:50.910,497,-0.7029069,-0.02414775,-0.275199,1.4483615,-0.84620106,-1.8532125
2026-05-10 11:30:50.920,498,-0.7029069,-0.02414775,-0.275199,1.4483615,-0.84620106,-1.8532125
2026-05-10 11:30:50.930,499,-0.7029069,-0.02414775,-0.275199,1.42705755,-0.871857405,-1.76799675
2026-05-10 11:30:50.940,500,-0.8671085025,0.1557865245,-0.3722320725,-0.8124889625,0.322765915,-0.18497764
2026-05-10 11:30:50.950,501,-1.2017165,-0.108298995,0.000121958336,-1.9601139000000003,0.8597928,2.6148088
2026-05-10 11:30:50.960,502,-0.9941739,-0.1843705075,0.065491629168,-1.94759115,0.7544185649999999,3.1718415
2026-05-10 11:30:50.970,503,-0.7866313,-0.26044202,0.1308613,-1.7747163,0.5648594325,4.5694628
2026-05-10 11:30:50.980,504,-0.49206123333333335,-0.30251765333333336,0.20789831333333333,-1.7212656,0.5367978,4.849659
2026-05-10 11:30:50.990,505,-0.3447762,-0.32355547,0.24641682,-1.7212656,0.5367978,4.849659
2026-05-10 11:30:51.000,506,0.053356790000000015,-0.31526230499999996,0.26870471,-1.4464526,0.48594329,5.384777
2026-05-10 11:30:51.010,507,0.45148978,-0.30696914,0.2909926,-1.1716396,0.43508878,5.919895
2026-05-10 11:30:51.020,508,1.0092255666666665,-0.30353398000000004,0.21889488333333332,-0.19242255,-0.113926366,6.9015555
2026-05-10 11:30:51.030,509,1.12534005,-0.3402485125,0.14118201875,-0.19242255,-0.113926366,6.9015555
2026-05-10 11:30:51.040,510,1.1933013,-0.37953433,0.034758125,-0.19242255,-0.113926366,6.9015555
2026-05-10 11:30:51.050,511,1.5503954,-0.34001982,-0.12927583,-0.0015780686666666682,-0.5675956333333333,7.661217399999999
2026-05-10 11:30:51.060,512,1.6863789,-0.3260556,-0.17177830500000002,-0.060322944,-0.6001751,7.7245436
2026-05-10 11:30:51.070,513,1.8223624,-0.31209138,-0.21428078,-0.060322944,-0.6001751,7.7245436
2026-05-10 11:30:51.080,514,2.0378017,-0.24824621,-0.3339829,-0.06032294400000001,-0.6001751,7.7245436
2026-05-10 11:30:51.090,515,2.0192642000000003,-0.243367875,-0.335507385,-0.6580546,-0.38713586,7.2601333
2026-05-10 11:30:51.100,516,2.0007267,-0.23848954,-0.33703187,-1.4512631,-0.071318515,7.122078
2026-05-10 11:30:51.110,517,1.84032095,-0.2547252425,-0.2893918925,-1.2529609750000001,-0.15027285125,7.156591825
2026-05-10 11:30:51.120,518,1.3591036999999997,-0.30343235,-0.14647196,-0.6580546,-0.38713586000000005,7.2601333
2026-05-10 11:30:51.130,519,1.3591037,-0.30343235,-0.14647196,-0.6580546,-0.38713586,7.2601333
2026-05-10 11:30:51.140,520,1.43264455,-0.281723755,-0.189218365,-0.6580546,-0.38713586,7.2601333
2026-05-10 11:30:51.150,521,1.5061854,-0.26001516,-0.23196476999999996,-2.7036387000000004,-0.9238318066666666,6.4608162
2026-05-10 11:30:51.160,522,1.580366575,-0.14029781500000002,-0.10561592749999998,-2.5445592,-1.2835805,5.9472313
2026-05-10 11:30:51.170,523,1.8029101,0.21885422,0.2734306,-2.33136725,-1.4498886500000001,5.66371345
2026-05-10 11:30:51.180,524,0.92968833,0.14165461,0.38758358,-1.1214977166666666,-1.5628478333333333,5.4412312
2026-05-10 11:30:51.190,525,0.92968833,0.14165461,0.38758358,-0.82818055,-1.2829697,6.284429
2026-05-10 11:30:51.200,526,1.093478365,-0.08436468500000001,0.09113336,-1.8350773375,-0.2048307425,7.163616725000001
2026-05-10 11:30:51.210,527,1.2572684,-0.31038398,-0.20531686,-2.1707096,0.15454891,7.4566793
2026-05-10 11:30:51.220,528,1.2572684,-0.31038398,-0.20531686000000002,-2.5901704,0.12339478333333335,7.593207766666667
2026-05-10 11:30:51.230,529,1.6355832000000001,-0.058722945,-0.004756379999999991,-2.7999008,0.10781772,7.661472
2026-05-10 11:30:51.240,530,1.3442045,0.20442249666666668,0.06709740666666666,-1.6077464,-0.8971065266666667,6.4054312
2026-05-10 11:30:51.250,531,1.2608054,0.2830653,-0.19543824,-1.057255,-1.1665999,6.413016
2026-05-10 11:30:51.260,532,2.253378425,0.649854975,-0.2795895075,-1.84149145,-0.906485875,5.925431025
2026-05-10 11:30:51.270,533,2.5842361,0.7721182,-0.30763993,-2.1029036,-0.8197812,5.7629027
2026-05-10 11:30:51.280,534,2.9928371000000005,1.0301820666666666,-0.23783908333333334,-2.1029036,-0.8197812,5.762902700000001
2026-05-10 11:30:51.290,535,2.5471455250000004,1.291020375,0.106103761275,-2.9830077,-1.3364204,2.1520782
2026-05-10 11:30:51.300,536,1.550547775,1.118739,0.80309568,-3.131676975,-1.4563408999999998,1.5182292
2026-05-10 11:30:51.310,537,1.4501456,1.0855511,0.9218831,-2.658231066666667,-1.1916454,1.301143
2026-05-10 11:30:51.320,538,1.532421725,1.096481675,1.264021925,-1.9109392,-0.9149234,1.5238034
2026-05-10 11:30:51.330,539,2.1221972,1.2944658,1.2362306,-1.9109392,-0.9149234,1.5238034
2026-05-10 11:30:51.340,540,2.681742,1.5198448,0.934780115,-0.574824195,-0.867504975,1.3837243
2026-05-10 11:30:51.350,541,3.5256122666666663,1.8473028666666667,0.47051525,0.6808093199999999,-0.7999789333333333,-0.08165231
2026-05-10 11:30:51.360,542,3.7034173,1.924792125,0.3183569825,0.4239023,-0.40595811,-0.91167815
2026-05-10 11:30:51.370,543,3.8103442,2.0041413,0.10610375,-0.3857614,0.61834836,-2.5787675
2026-05-10 11:30:51.380,544,3.673568,1.9867013,-0.03469715,-0.3857614,0.61834836,-2.5787675
2026-05-10 11:30:51.390,545,3.6476519,1.9425524,-0.0029117575000000007,-0.3857614,0.61834836,-2.5787675
2026-05-10 11:30:51.400,546,3.5699036,1.8101057,0.09244442000000001,-0.7959574666666667,0.9727519866666667,-3.0100385000000003
2026-05-10 11:30:51.410,547,3.5699036,1.8101057,0.09244442,-1.0010555,1.1499538,-3.225674
2026-05-10 11:30:51.420,548,3.5699036,1.8101057,0.09244442,-1.0010555,1.1499538,-3.225674
2026-05-10 11:30:51.430,549,3.5699036,1.8101057,0.09244442,-1.11078215,1.37773015,-3.398396
2026-05-10 11:30:51.440,550,3.545796533333333,1.7586392999999998,0.2697311866666667,-1.2205088,1.6055065,-3.571118
2026-05-10 11:30:51.450,551,3.694163725,1.618753025,0.2774247225,-1.1237248,1.8488982250000001,-4.582978225
2026-05-10 11:30:51.460,552,3.706481425,1.5104997,0.189675705,-1.1104003,1.8851302,-4.8546987
2026-05-10 11:30:51.470,553,3.6100276,1.4292296999999998,0.12958074,-1.1104003,1.8851302,-4.8546987
2026-05-10 11:30:51.480,554,3.6100276,1.4292297,0.12958074,-1.1104003,1.8851302,-4.8546987
2026-05-10 11:30:51.490,555,3.6100276,1.4292297,0.12958074,-1.471536175,2.194380625,-5.088125625
2026-05-10 11:30:51.500,556,3.6100276,1.4292296999999998,0.12958074,-1.5919148000000003,2.2974641,-5.1659346
2026-05-10 11:30:51.510,557,3.50858895,1.3657199,0.1175373475,-1.5919148,2.2974641,-5.1659346
2026-05-10 11:30:51.520,558,3.31435515,1.244340875,0.15962821625,-2.1027508,2.6757424,-5.288108
2026-05-10 11:30:51.530,559,3.0359697000000003,1.0707332,0.322031,-2.1027508,2.6757423999999994,-5.288108
2026-05-10 11:30:51.540,560,3.0359697,1.0707332,0.322031,-2.2582160499999997,2.820135725,-5.289100625
2026-05-10 11:30:51.550,561,3.0359697,1.0707332,0.322031,-2.7700831,3.385949675,-5.287955074999999
2026-05-10 11:30:51.560,562,2.964578475,1.0046470475,0.494266655,-2.7852402,3.430161,-5.2865806
2026-05-10 11:30:51.570,563,2.9407814,0.9826183299999999,0.55167854,-2.7852402,3.430161,-5.2865806
2026-05-10 11:30:51.580,564,2.9228535,0.9260448975,0.67328623,-2.6014079,3.5385514000000002,-5.357631825
2026-05-10 11:30:51.590,565,2.687550075,0.5604899999999999,1.2417188499999998,-2.049911,3.8637226,-5.5707855
2026-05-10 11:30:51.600,566,2.6270435,0.49521180000000004,1.3095887,-2.049911,3.8637226000000005,-5.5707855
2026-05-10 11:30:51.610,567,2.6270435,0.4952118,1.3095887,-2.049911,3.8637226,-5.5707855
2026-05-10 11:30:51.620,568,2.6270435,0.4952118,1.3095887,-0.9972375,3.9866593,-5.891795
2026-05-10 11:30:51.630,569,2.6270435,0.49521180000000004,1.3095887,-0.9972375000000001,3.9866593,-5.891794999999999
2026-05-10 11:30:51.640,570,2.6270435,0.4952118,1.3095887,-0.574136975,3.977305425,-5.96422075
2026-05-10 11:30:51.650,571,2.6270435,0.4952118,1.3095887,0.6951646,3.9492438,-6.181498
2026-05-10 11:30:51.660,572,2.6270435,0.49521180000000004,1.3095887,0.6951646,3.9492438,-6.181498
2026-05-10 11:30:51.670,573,1.958285,-0.0156411575,1.20150305,1.995162175,3.771825675,-6.21803545
2026-05-10 11:30:51.680,574,1.5918459,-0.41592367249999995,0.6919153499999999,3.52851025,3.4662021750000003,-6.15427665
2026-05-10 11:30:51.690,575,1.4636829333333334,-0.5974332533333333,0.28743546,4.884580033333333,2.827746266666667,-5.884923133333333
2026-05-10 11:30:51.700,576,1.445938,-0.63393945,0.16263144,5.379279,2.549599,-5.7629027
2026-05-10 11:30:51.710,577,1.4641301333333332,-0.6591035166666667,0.10242467499999999,5.379279,2.549599,-5.7629027
2026-05-10 11:30:51.720,578,1.4823222666666667,-0.6842675833333333,0.04221791,5.379279,2.549599,-5.7629027
2026-05-10 11:30:51.730,579,1.5005144,-0.70943165,-0.017988855,5.379279,2.549599,-5.7629027
2026-05-10 11:30:51.740,580,1.5005144,-0.70943165,-0.017988855,5.627596,1.9063578,-5.6111026
2026-05-10 11:30:51.750,581,1.5005144,-0.70943165,-0.017988855,5.627596,1.9063578,-5.6111026
2026-05-10 11:30:51.760,582,1.5574841,-0.8016778375,-0.152127775,5.5212671,1.19183625,-5.75461795
2026-05-10 11:30:51.770,583,1.614072775,-0.9405274375,-0.2690095925,5.0524664,0.7959574,-6.0041943
2026-05-10 11:30:51.780,584,1.4160582,-1.1654949,-0.10329871,4.2885795,0.6062838,-6.5064783
2026-05-10 11:30:51.790,585,1.2166563,-1.3744705,-0.13628843,4.2885795,0.6062838,-6.5064783
2026-05-10 11:30:51.800,586,1.2166563,-1.3744705,-0.13628843,3.7954586,0.7079928,-6.504493
2026-05-10 11:30:51.810,587,0.9474333,-1.5821655,-0.15933856,2.4185681,0.55924714,-6.032905
2026-05-10 11:30:51.820,588,0.886926725,-1.5859309499999998,-0.15557309749999998,2.158110575,0.49418998000000003,-5.87633275
2026-05-10 11:30:51.830,589,0.705407,-1.5972273,-0.14427671,2.0712914,0.47250426,-5.824141999999999
2026-05-10 11:30:51.840,590,0.705407,-1.5972273,-0.14427671,2.0712914,0.47250426,-5.824142
2026-05-10 11:30:51.850,591,0.23720895,-1.5041121,-0.077260606,1.7033978,0.34040466,-5.370422
2026-05-10 11:30:51.860,592,0.23720895,-1.5041121,-0.077260606,1.7033978,0.34040466,-5.370422
2026-05-10 11:30:51.870,593,0.040673107,-1.3717873,-0.14683785,1.5691601000000002,0.3022256,-5.0932417
2026-05-10 11:30:51.880,594,0.040673107,-1.3717873,-0.14683785,1.50486655,0.30745612499999997,-4.978551775
2026-05-10 11:30:51.890,595,0.040673107,-1.3717873,-0.14683785,1.3119859,0.3231477,-4.634482
2026-05-10 11:30:51.900,596,-0.04727918266666667,-1.3154426333333333,-0.17688023666666666,1.0960959133333334,0.44348815,-4.3877942333333335
2026-05-10 11:30:51.910,597,-0.14031307,-1.2573905,-0.18080322,0.66431594,0.68416905,-3.8944187
2026-05-10 11:30:51.920,598,-0.302075545,-1.25675015,-0.1891268925,0.60475661,0.6625215375,-3.673705475
2026-05-10 11:30:51.930,599,-0.4350253766666667,-1.2598295666666666,-0.19775543666666665,0.5849035,0.6553057,-3.6001344
2026-05-10 11:30:51.940,600,-0.47453988,-1.261476,-0.20068243,0.610407125,0.55100045,-3.4901023
2026-05-10 11:30:51.950,601,-0.55905704,-1.28220895,-0.15772260999999999,0.797484605,0.121027675,-3.05218825
2026-05-10 11:30:51.960,602,-0.670953825,-1.300365525,-0.0934505715,1.29156004,-0.4688772625,-2.508518175
2026-05-10 11:30:51.970,603,-0.7530927,-1.2926364,-0.029513916,1.4023939,-0.5569564,-2.4365888
2026-05-10 11:30:51.980,604,-1.2672232499999998,-1.09642064,-0.25047191999999996,2.4315491,-1.895552975,-1.1519008907500001
2026-05-10 11:30:51.990,605,-1.5511880249999999,-0.89944274,-0.473472735,1.8703166,-1.9172006,0.049021937
2026-05-10 11:30:52.000,606,-1.5486268999999997,-0.8732827,-0.47704002,1.2092586266666665,-1.4653639333333333,0.6956228456666667
2026-05-10 11:30:52.010,607,-1.5486269,-0.8732827,-0.47704002,0.87872964,-1.2394456,1.0189233
2026-05-10 11:30:52.020,608,-1.5486268999999997,-0.8732827,-0.47704002,0.87872964,-1.2394456,1.0189233
2026-05-10 11:30:52.030,609,-1.35449975,-0.6020930824999999,-0.189995835,-1.4737123250000002,0.5728389,3.63411365
2026-05-10 11:30:52.040,610,0.08915154999999998,-0.3943217975,0.147523845,-2.52539315,1.544916375,6.4202318
2026-05-10 11:30:52.050,611,0.389352,-0.37069237,0.15037462,-2.5612051,1.5751160000000002,6.6226954000000005
2026-05-10 11:30:52.060,612,0.389352,-0.37069237,0.15037462,-2.5612051,1.575116,6.6226954
2026-05-10 11:30:52.070,613,0.389352,-0.37069237,0.15037462,-2.7956247,1.6355917,7.688808
2026-05-10 11:30:52.080,614,0.6306872333333332,-0.3785993333333333,0.17208320333333335,-2.7956247,1.6355917,7.688807999999999
2026-05-10 11:30:52.090,615,1.1133577,-0.39441326,0.21550037,-2.8433485999999997,1.617380275,7.7736037499999995
2026-05-10 11:30:52.100,616,1.15357345,-0.40186796999999996,0.233900835,-2.99003265,1.49295465,8.051128
2026-05-10 11:30:52.110,617,1.281126575,-0.43223561,0.3116187925,-2.993545,1.4231633,8.074265
2026-05-10 11:30:52.120,618,1.3018442,-0.45624614,0.37916848,-2.9935449999999997,1.4231633,8.074265
2026-05-10 11:30:52.130,619,1.498029525,-0.5291162850000001,0.24917612,-2.454723725,0.2472476975,9.22207975
2026-05-10 11:30:52.140,620,1.646681475,-0.5405498750000001,0.16769271375,-2.455410975,0.108695834,9.50647575
2026-05-10 11:30:52.150,621,3.2767968333333335,-0.08006564666666667,0.16602594933333334,-3.2206342000000006,0.29275718,9.465662
2026-05-10 11:30:52.160,622,3.5100217,0.14824036,0.4080726,-3.15546265,0.0113391875,8.46162875
2026-05-10 11:30:52.170,623,3.436435075,0.251828725,0.5683716000000001,-2.94727215,-0.21006128000000002,7.70213255
2026-05-10 11:30:52.180,624,3.4119061999999993,0.28635818,0.6218046,-2.8851166,-0.25259277,7.5605264
2026-05-10 11:30:52.190,625,1.9166057,0.235653985,0.8067849,-0.8323039,-0.86483246,5.8110085
2026-05-10 11:30:52.200,626,1.5372238,0.17372964,0.8029127,-0.8323039,-0.86483246,5.8110085
2026-05-10 11:30:52.210,627,1.226534985,0.040337717499999995,0.6618374,0.20956495375,-0.815543275,6.48383825
2026-05-10 11:30:52.220,628,0.91584617,-0.093054205,0.5207621,0.7652614,-0.3932445,7.700567199999999
2026-05-10 11:30:52.230,629,0.91584617,-0.093054205,0.5207621,0.7652614,-0.3932445,7.7005672
2026-05-10 11:30:52.240,630,1.2332732025,-0.011143938749999999,0.238535265,0.7652614,-0.3932445,7.7005672
2026-05-10 11:30:52.250,631,2.9441352,0.7017482999999999,-1.0703063,-0.4325435333333334,-0.24668775333333334,7.293629200000001
2026-05-10 11:30:52.260,632,2.9441352,0.7017483,-1.0703063,-1.370629,-0.25595254,6.713409
2026-05-10 11:30:52.270,633,2.90518475,0.7393876675,-0.9740811875,-1.370629,-0.25595254,6.713409
2026-05-10 11:30:52.280,634,2.7883334,0.85230577,-0.68540585,-1.7166459500000002,-0.30340913,6.394613675
2026-05-10 11:30:52.290,635,2.7883334000000004,0.85230577,-0.68540585,-2.7546968,-0.4457788999999999,5.4382277
2026-05-10 11:30:52.300,636,1.56554865,0.7303322325,0.39108993750000004,-3.0820824,-0.6923775675,4.678922174999999
2026-05-10 11:30:52.310,637,0.8650505,0.6580262,1.0265234,-1.9372064,-0.8089383,4.6341763
2026-05-10 11:30:52.320,638,1.1969194666666667,0.79201775,0.7610607100000001,-0.6855944233333333,-0.8609636833333333,4.8959322
2026-05-10 11:30:52.330,639,1.9072606250000002,1.1622324,0.03295924,0.1800907075,-0.846353825,4.6730808
2026-05-10 11:30:52.340,640,2.2299167,1.52024105,-0.4051455725,-0.4729624225,-0.712116175,3.877314325
2026-05-10 11:30:52.350,641,2.3578813,1.8681577,-0.37422916,-2.098933,-0.56214875,2.3446536
2026-05-10 11:30:52.360,642,2.3601376,1.9021841,-0.19229780900000001,-2.098933,-0.56214875,2.3446536
2026-05-10 11:30:52.370,643,2.3623939,1.9362105,-0.010366458,-2.6659687,-0.46929723,1.5212072
2026-05-10 11:30:52.380,644,2.3596092666666664,1.9405603666666666,0.13746737133333334,-2.743955833333333,-0.38123081,0.84497936
2026-05-10 11:30:52.390,645,2.3781266,1.8554131,0.6024132,-2.4979806,-0.19135354,-0.093462385
2026-05-10 11:30:52.400,646,2.3781266,1.8554131,0.6024132,-2.4979806,-0.19135354,-0.093462385
2026-05-10 11:30:52.410,647,2.3607781,1.77507305,0.6269572999999999,-2.1160372499999998,-0.091362533,-0.65557294625
2026-05-10 11:30:52.420,648,2.6219823,1.8885858000000002,0.6399763,-1.1835514,0.4708244,-1.64674
2026-05-10 11:30:52.430,649,2.6219823,1.8885858,0.6399763,-1.1835514,0.4708244,-1.64674
2026-05-10 11:30:52.440,650,2.75424615,1.9096388499999999,0.6772041,-1.02736079,0.514386725,-1.7742581000000002
2026-05-10 11:30:52.450,651,3.409345233333333,1.9466988666666667,0.7907981866666667,-0.07997243999999999,0.6520986333333333,-2.5371778000000003
2026-05-10 11:30:52.460,652,3.599066575,1.9052178249999998,0.7698924975,0.15943582,0.6556111,-2.7273605
2026-05-10 11:30:52.470,653,3.7807693,1.8199234,0.7043094,1.0025826,0.5500842,-3.519042
2026-05-10 11:30:52.480,654,3.616644,1.6249424000000001,0.6118345000000001,1.3536774,0.48792863,-3.8428006
2026-05-10 11:30:52.490,655,3.4525187,1.4299614,0.5193596,1.6786068333333333,0.39390627999999994,-4.1127012333333335
2026-05-10 11:30:52.500,656,3.4525187,1.4299614,0.5193596,2.3284657,0.20586158,-4.6525025
2026-05-10 11:30:52.510,657,3.263894625,1.2626499,0.30663375,2.41161965,0.21884246499999999,-4.76245825
2026-05-10 11:30:52.520,658,3.0910342000000006,0.9913383000000001,-0.07183346,2.0379992,0.46028697,-5.027879
2026-05-10 11:30:52.530,659,3.0050535500000004,0.9278132675,-0.06626911075,1.4778358,0.7165449,-5.2429037
2026-05-10 11:30:52.540,660,2.7471116,0.73723817,-0.049576063,1.085087605,0.870024825,-5.402683175
2026-05-10 11:30:52.550,661,2.7471116,0.73723817,-0.049576063,0.95417154,0.9211848000000001,-5.455943
2026-05-10 11:30:52.560,662,2.5618873000000004,0.636256665,-0.006036936499999999,0.78542,0.95745493,-5.4961073
2026-05-10 11:30:52.570,663,2.1564674,0.41953668,0.11177482,0.53969944,0.98975444,-5.5336757
2026-05-10 11:30:52.580,664,1.6907694,0.2587956,0.22147635,0.6533204,0.9428705000000001,-5.3866096
2026-05-10 11:30:52.590,665,1.418238225,0.16057339,0.20117026999999998,0.857120305,0.99647395,-5.12638115
2026-05-10 11:30:52.600,666,1.363982,0.14336202,0.19360885,0.98731095,1.0473285,-4.9698467
2026-05-10 11:30:52.610,667,1.176806425,0.0852641215,0.1676317275,1.192790725,0.992885125,-4.80842565
2026-05-10 11:30:52.620,668,1.1074426,0.057503358,0.14903308,1.3982705,0.93844175,-4.6470046
2026-05-10 11:30:52.630,669,1.1034484999999998,0.046588086,0.086651395,1.3982705,0.93844175,-4.6470046
2026-05-10 11:30:52.640,670,1.0994544,0.035672814,0.02426971,1.6189456,0.7612907999999999,-4.698012
2026-05-10 11:30:52.650,671,1.0662359875,0.014604510999999997,-0.012073875000000001,1.60863725,0.735329025,-4.7431396
2026-05-10 11:30:52.660,672,0.73431116,-0.184401,-0.09707884,1.49810885,0.644501025,-4.91597605
2026-05-10 11:30:52.670,673,0.73431116,-0.184401,-0.09707884,1.4715744,0.6401868,-4.9284606
2026-05-10 11:30:52.680,674,0.63034165,-0.23379412,-0.053783625,1.4457654,0.5833763,-4.9156327
2026-05-10 11:30:52.690,675,0.4262291425,-0.32338777,0.06567455999999999,1.50219405,0.48426342499999997,-4.83912185
2026-05-10 11:30:52.700,676,0.35735826,-0.3744324133333334,0.12490565999999999,1.6037248999999998,0.35506543333333335,-4.714556333333333
2026-05-10 11:30:52.710,677,0.40069413,-0.63863486,-0.04164877,1.59256385,0.7171176175,-4.204051
2026-05-10 11:30:52.720,678,0.4413672,-0.81736475,-0.30928633,0.85062987,1.2606732,-3.7560577
2026-05-10 11:30:52.730,679,0.4413672,-0.81736475,-0.30928633,0.20738875666666667,1.5718072,-3.553759433333333
2026-05-10 11:30:52.740,680,0.79309505,-0.88060015,-0.2423312,-0.1624519775,1.7399351,-3.45787905
2026-05-10 11:30:52.750,681,0.857397575,-0.867946975,-0.202115445,-0.65087694,1.7654005,-3.747811
2026-05-10 11:30:52.760,682,0.9217001000000001,-0.8552938,-0.16189969,-0.6506224066666667,1.7126624666666668,-3.8761946000000003
2026-05-10 11:30:52.770,683,0.707678485,-0.888786625,-0.0791052255,-0.65011334,1.6071864,-4.1329618
2026-05-10 11:30:52.780,684,0.53009194,-0.8959669,-0.03597771,-0.51068336,1.3820826,-4.2966733
2026-05-10 11:30:52.790,685,0.53009194,-0.8959669,-0.03597771,-0.51068336,1.3820826,-4.2966733
2026-05-10 11:30:52.800,686,0.3816279533333334,-0.8514114666666667,0.016179805999999998,-0.51068336,1.3820825999999997,-4.2966733
2026-05-10 11:30:52.810,687,0.07701668250000002,-0.8332346025,0.004634415499999996,-0.061353777,1.01785422,-4.2568525
2026-05-10 11:30:52.820,688,-0.546815425,-0.77768257,-0.06867778875,0.785152755,0.575740475,-3.3307045750000004
2026-05-10 11:30:52.830,689,-0.6842472533333334,-0.7291278999999999,-0.08874502,1.1689415333333333,0.2778927777333334,-2.8601729333333332
2026-05-10 11:30:52.840,690,-0.73156708,-0.62954893,-0.183669255,1.67938305,-0.3486131659,-2.1227567499999997
2026-05-10 11:30:52.850,691,-0.8596233,-0.5909491,-0.33623913,1.9810359750000002,-1.573894325,-0.6289621
2026-05-10 11:30:52.860,692,-0.8960075333333334,-0.5836316066666667,-0.35811031,1.9469801999999998,-1.5867224999999998,-0.5377141
2026-05-10 11:30:52.870,693,-0.91419965,-0.57997286,-0.3690459,1.9469802,-1.5867225,-0.5377141
2026-05-10 11:30:52.880,694,-1.01534375,-0.5357019866666667,-0.37937171999999997,1.3020083333333334,-1.18854014,0.3052799
2026-05-10 11:30:52.890,695,-1.0322011,-0.5283235077777778,-0.38109268999999996,1.1945130222222222,-1.1221764133333334,0.4457789
2026-05-10 11:30:52.900,696,-1.04905845,-0.5209450288888888,-0.38281365999999994,1.0870177111111112,-1.0558126866666668,0.5862779
2026-05-10 11:30:52.910,697,-1.0659158,-0.51356655,-0.38453462999999993,0.9795224,-0.9894489600000002,0.7267769
2026-05-10 11:30:52.920,698,-1.0659158,-0.51356655,-0.38453463,0.9795224,-0.98944896,0.7267769
2026-05-10 11:30:52.930,699,-1.3329437,-0.47155192,-0.1425693,-0.05166901666666668,-0.27702739,2.234188833333333
2026-05-10 11:30:52.940,700,-0.9766119,-0.432220335,0.008659034999999995,-0.95447695,0.705549365,5.49709985
2026-05-10 11:30:52.950,701,-0.6202801,-0.39288875,0.15988737,-1.0705414,0.95814216,6.845661
2026-05-10 11:30:52.960,702,-0.6202801,-0.39288875,0.15988737,-1.182215125,1.0141509149999999,7.3437838499999994
2026-05-10 11:30:52.970,703,0.093359105,-0.40703595,0.08189502,-1.2194397,1.0328205,7.5098248
2026-05-10 11:30:52.980,704,1.3285836149999999,-0.23428197,-0.047350327500000004,-1.466458375,0.8453229999999999,7.474012775
2026-05-10 11:30:52.990,705,1.8643567,-0.05732041933333334,-0.14769154666666667,-1.9155207,0.5305365,7.2914405
2026-05-10 11:30:53.000,706,1.7604838250000001,0.0057320405000000005,-0.06468365300000001,-1.963320875,0.4471152075,7.3416841250000004
2026-05-10 11:30:53.010,707,1.7818722999999999,-0.015702135,0.037075332600000004,-2.1849886,0.008017609999999994,7.751498
2026-05-10 11:30:53.020,708,2.0896342,0.03963646,0.19574313,-2.8258625999999993,0.09896017,8.010735
2026-05-10 11:30:53.030,709,2.0896342,0.03963646,0.19574313,-2.8258626,0.09896017,8.010735
2026-05-10 11:30:53.040,710,2.2010024666666665,0.11380744666666669,0.2718451333333333,-2.8258625999999993,0.09896017,8.010735
2026-05-10 11:30:53.050,711,2.423739,0.26214942,0.42404914,-2.0885482,-0.4906775,7.133837
2026-05-10 11:30:53.060,712,2.41803745,0.32450063500000004,0.44389786,-1.6452892000000001,-0.78274745,6.6226574750000005
2026-05-10 11:30:53.070,713,2.4123359,0.38685185,0.46374658,-1.4975362,-0.8801041,6.4522643
2026-05-10 11:30:53.080,714,1.9387716,0.47130796,0.35355723,-0.92294105,-1.1773664,5.795355150000001
2026-05-10 11:30:53.090,715,1.7540505,0.465377745,0.31154258,-0.3483459,-1.4746287,5.138446
2026-05-10 11:30:53.100,716,1.1998872,0.4475871,0.18549863,0.36514469999999993,-1.6624697,4.5194864
2026-05-10 11:30:53.110,717,0.88835978,0.444492385,-0.048249764,0.36972619,-1.488334975,4.923382849999999
2026-05-10 11:30:53.120,718,0.8349877,0.41624376,-0.28001633,0.19333884899999998,-1.2455542666666666,5.356982666666667
2026-05-10 11:30:53.130,719,0.8349877,0.41624376,-0.28001633,-0.036651913,-1.0296134,5.606216
2026-05-10 11:30:53.140,720,0.8349877,0.41624376,-0.28001633,-0.036651913,-1.0296134,5.606216
2026-05-10 11:30:53.150,721,0.8349877,0.41624376,-0.28001633,-0.036651913,-1.0296134,5.606216
2026-05-10 11:30:53.160,722,1.5437791,0.60329739,-0.13211136499999998,-0.7691175782499999,-0.404240075,5.8099775000000005
2026-05-10 11:30:53.170,723,1.93608855,0.7443727,0.06311343,-1.2081005999999999,-0.10758863325,4.726302625
2026-05-10 11:30:53.180,724,1.8891956,0.8541148666666666,0.3186771233333333,-0.7316638000000001,-0.3943135,3.1128166
2026-05-10 11:30:53.190,725,1.68332995,0.8754778999999999,0.35895388,-0.6652322175,-0.429323725,3.0182852000000002
2026-05-10 11:30:53.200,726,1.5789336,0.8813319,0.34441036,-0.369038969,-0.6080400125000001,2.572582625
2026-05-10 11:30:53.210,727,0.7771184999999999,0.8905397699999998,-0.27995536,-0.4173737,-0.9300422999999999,2.0431914
2026-05-10 11:30:53.220,728,0.80285174,0.91822433,-0.42490283,-0.4173737,-0.9300423,2.0431914
2026-05-10 11:30:53.230,729,1.1993992,0.91554123,-0.34880084,-1.0554606,-0.7855344949999999,2.06945865
2026-05-10 11:30:53.240,730,1.449840625,0.9720689324999999,-0.2508835475,-2.9697213,-0.35201108,2.1482604
2026-05-10 11:30:53.250,731,2.1960428,1.0900027,0.13958131,-2.9697213,-0.35201108,2.1482604
2026-05-10 11:30:53.260,732,2.1960428,1.0900027,0.13958131,-3.5343137,-0.15286903,1.6751453
2026-05-10 11:30:53.270,733,2.7614212666666664,1.274119,0.6140602000000001,-2.4238623666666665,-0.3479386633333334,0.060781093333333334
2026-05-10 11:30:53.280,734,2.8042184,1.4886235,0.6216520999999999,-1.37440861,-0.685276285,-0.51492123
2026-05-10 11:30:53.290,735,2.92023125,1.567179875,0.40442909,-1.1301770649999998,-0.74525562,-0.67752592
2026-05-10 11:30:53.300,736,3.2817159,1.5139703999999998,0.22663924466666666,-1.1578950766666667,-0.2809980266666667,-1.4555391666666668
2026-05-10 11:30:53.310,737,3.536121,1.4467307,0.2359284,-1.606881,0.32268956,-2.0076087
2026-05-10 11:30:53.320,738,3.536121,1.4467307,0.2359284,-1.2008466,0.7307093499999999,-2.9899564
2026-05-10 11:30:53.330,739,3.5394139,1.426775275,0.29673988,-1.6513215,0.6779077,-2.4839308
2026-05-10 11:30:53.340,740,3.5492926,1.366909,0.47917432,-1.6513215,0.6779077,-2.4839308
2026-05-10 11:30:53.350,741,3.53987125,1.3367395499999999,0.5463733550000001,-1.6513215,0.6779077,-2.4839308
2026-05-10 11:30:53.360,742,3.5116072,1.2462312,0.74797046,-0.93080593,0.629802075,-3.03302225
2026-05-10 11:30:53.370,743,3.1879299,0.922127,0.8933448,0.474795,0.50686544,-3.8322632
2026-05-10 11:30:53.380,744,2.836446,0.7929121,0.55856913,1.30893155,0.5962044500000001,-4.0730967
2026-05-10 11:30:53.390,745,2.80985905,0.796083015,0.5019957174999999,1.477110325,0.6921866600000001,-4.14850055
2026-05-10 11:30:53.400,746,2.7300982,0.80559576,0.33227548,1.5207489999999997,0.84406304,-4.256051
2026-05-10 11:30:53.410,747,2.5176469,0.8094069825,0.09884722900000001,1.312444,1.0488557,-4.3904414
2026-05-10 11:30:53.420,748,2.32242215,0.79484822,-0.044865421749999995,1.07840623,1.2349405,-4.4723737
2026-05-10 11:30:53.430,749,1.7994342333333335,0.61873528,0.06158895943333333,0.21034126666666667,1.8375845,-4.7980919
2026-05-10 11:30:53.440,750,1.71215785,0.566511685,0.13185220375,0.32620204,1.8085046999999999,-4.974161125
2026-05-10 11:30:53.450,751,1.5681403,0.47636923,0.24056281,0.40026945,1.7794504,-5.009095
2026-05-10 11:30:53.460,752,1.3411961666666665,0.35843552999999995,0.20824385666666667,0.7598654333333333,1.6652695333333334,-5.072828666666667
2026-05-10 11:30:53.470,753,0.8873079,0.12256813,0.14360595,1.60184135,1.44943055,-5.1277557
2026-05-10 11:30:53.480,754,0.6071086,-0.08744413,0.023964813,1.77005845,1.46187695,-4.9600729999999995
2026-05-10 11:30:53.490,755,0.53519382,-0.16541615,-0.078805409,1.8154916000000003,1.4618006,-4.8649306
2026-05-10 11:30:53.500,756,0.49923643,-0.20440216,-0.13019052,1.8154916,1.4618006,-4.8649306
2026-05-10 11:30:53.510,757,0.4778022575,-0.22141535,-0.196413895,1.785253725,1.434388,-4.83217295
2026-05-10 11:30:53.520,758,0.40951576666666667,-0.29420415333333333,-0.3646350866666667,1.1755083266666666,1.2796608666666667,-4.638198
2026-05-10 11:30:53.530,759,0.427860335,-0.3367727025,-0.272119528,0.789123365,1.2319243,-4.59084335
2026-05-10 11:30:53.540,760,0.48887,-0.4318545,-0.040246252,0.37816376,1.2007702,-4.6242881
2026-05-10 11:30:53.550,761,0.499582,-0.4540305833333333,-0.019493008000000003,0.3680463,1.2018774,-4.63494
2026-05-10 11:30:53.560,762,0.521006,-0.49838275,0.02201348,0.3680463,1.2018774,-4.63494
2026-05-10 11:30:53.570,763,0.5553525275,-0.6456931375,0.07030898,0.36266305,1.2612458500000001,-4.63616175
2026-05-10 11:30:53.580,764,0.5609626025,-0.713684915,0.08207795999999999,0.3465133,1.4393512,-4.639827
2026-05-10 11:30:53.590,765,0.5434463,-0.77034986,0.0690894,0.32859459333333335,1.6559030000000001,-4.615697933333333
2026-05-10 11:30:53.600,766,0.5434463,-0.77034986,0.0690894,0.31963524,1.7641789,-4.6036334
2026-05-10 11:30:53.610,767,0.361133865,-0.90366554,0.06884548175,0.434706985,2.099123825,-4.35325485
2026-05-10 11:30:53.620,768,0.27788207,-0.8737705,-0.09000525,1.0580186,1.5137241,-3.920075
2026-05-10 11:30:53.630,769,0.185254715,-0.84114663,-0.22586683999999999,0.9252317800000001,1.6936239,-3.8691442
2026-05-10 11:30:53.640,770,-0.04451479,-0.7866313000000001,-0.36660674,0.674548,1.8500054,-3.6593883
2026-05-10 11:30:53.650,771,-0.37044844,-0.7424214,-0.16476572,1.1748465,1.1711814,-3.2323935
2026-05-10 11:30:53.660,772,-0.45560586,-0.488443155,-0.33116263,2.019978525,-0.08204682499999999,-2.587319775
2026-05-10 11:30:53.670,773,-0.41349974,-0.26410076,-0.44996529999999996,2.2896757,-1.2794572,-1.9472857
2026-05-10 11:30:53.680,774,-0.4803939,-0.18397415,-0.4543558,2.147534975,-1.24925755,-1.881350425
2026-05-10 11:30:53.690,775,-0.4803939,-0.18397415,-0.4543558,1.7211128,-1.1586586,-1.6835446
2026-05-10 11:30:53.700,776,-0.912034875,-0.27000050000000003,-0.35515792749999997,1.0282389,-0.6603453,-1.3510813
2026-05-10 11:30:53.710,777,-1.1415706333333333,-0.3223358766666667,-0.27349157333333335,0.20983221333333335,-0.23854287333333332,-0.3148501133333333
2026-05-10 11:30:53.720,778,-1.3389806,-0.38953492,-0.08878566,-0.19685133,-0.32498032,0.97402465
2026-05-10 11:30:53.730,779,-1.1768979,-0.3684971000000001,0.09201756,-0.21634811333333334,-0.48716503333333333,1.5838717666666666
2026-05-10 11:30:53.740,780,-1.1768979,-0.3684971,0.09201756,-0.25534168,-0.81153446,2.803566
2026-05-10 11:30:53.750,781,-1.1768979,-0.3684971,0.09201756,-0.25534168,-0.81153446,2.803566
2026-05-10 11:30:53.760,782,-0.907949365,-0.30510925250000004,0.111286975,-0.339182935,-0.820621115,3.667138575
2026-05-10 11:30:53.770,783,0.27465016,-0.031221334,0.08604161,-0.91874135,-0.23884830999999998,5.7367883
2026-05-10 11:30:53.780,784,0.27465016,-0.031221334,0.08604161,-0.91874135,-0.23884831,5.7367883
2026-05-10 11:30:53.790,785,0.49743758,0.0253978205,0.06347931700000001,-1.0443505124999999,-0.1067868775,5.8604885499999995
2026-05-10 11:30:53.800,786,0.720225,0.082016975,0.040917024,-1.421178,0.28939742,6.2315893
2026-05-10 11:30:53.810,787,1.3979474,0.14671588,0.048173543,-2.3851615500000003,0.622051735,6.590434375
2026-05-10 11:30:53.820,788,1.52705555,0.148316575,0.08956314874999999,-2.5474608,0.57360244,6.5555005
2026-05-10 11:30:53.830,789,1.5700916,0.14885014,0.103359684,-2.5474608,0.57360244,6.5555005
2026-05-10 11:30:53.840,790,1.5700916000000003,0.14885014,0.103359684,-2.5474608,0.57360244,6.5555005
2026-05-10 11:30:53.850,791,1.641056075,0.15784457,0.17000991299999998,-2.5474608,0.57360244,6.5555005
2026-05-10 11:30:53.860,792,1.8539495,0.18482786,0.3699606,-2.5474608,0.57360244,6.5555005
2026-05-10 11:30:53.870,793,1.8539495,0.18482786000000004,0.3699606,-2.5636487,0.17852537,6.4111834
2026-05-10 11:30:53.880,794,1.7655298,0.257606485,0.38386387499999997,-2.22584025,-0.3107013325,6.357083825
2026-05-10 11:30:53.890,795,1.644547175,0.1917489825,0.11924476249999999,-2.622902675,-0.4909447525,6.62452815
2026-05-10 11:30:53.900,796,1.5943613,0.07451654166666667,0.23698536666666667,-3.084258566666667,-0.64929885,6.8278444333333335
2026-05-10 11:30:53.910,797,1.5580177,0.042197585,0.4935044,-2.9620855,-0.796721,6.8407745
2026-05-10 11:30:53.920,798,1.5580177,0.042197585,0.4935044,-2.9620855,-0.796721,6.8407745
2026-05-10 11:30:53.930,799,1.7298571,0.09102157500000001,0.7344940866666666,-2.1000528333333333,-1.3713415333333332,6.810536833333333
2026-05-10 11:30:53.940,800,2.086021,0.25002983749999996,0.75382446,0.7188356730000001,-2.706744,5.822615
2026-05-10 11:30:53.950,801,2.115367325,0.442068465,0.36058507,1.3716979,-2.9132164,5.379585
2026-05-10 11:30:53.960,802,1.9842011666666666,0.50504978,0.09120452000000001,1.3716979,-2.9132164,5.379585
2026-05-10 11:30:53.970,803,1.7623589,0.53289694,-0.20787798,1.6487253,-2.8365529,4.726112
2026-05-10 11:30:53.980,804,1.4599632,0.52966505,-0.4846624,1.2512811,-2.3978752749999996,4.546403
2026-05-10 11:30:53.990,805,1.0285356133333332,0.38134338333333334,-0.41079632,0.03868812666666669,-1.3183490666666666,4.545193866666667
2026-05-10 11:30:54.000,806,1.02185841,0.2913737025,-0.08511167525,-0.660727135,-0.7527387,4.8640909
2026-05-10 11:30:54.010,807,1.1327795,0.31024676,0.0011890935000000002,-0.6478226,-0.8315403,5.0269628
2026-05-10 11:30:54.020,808,1.3119668,0.37532678,0.033843435,-0.39736784,-1.1856894,4.812855
2026-05-10 11:30:54.030,809,1.3119668,0.37532678,0.033843435,-0.39736784,-1.1856894,4.812855
2026-05-10 11:30:54.040,810,1.3434015499999998,0.45463019000000005,-0.06198532749999999,-0.240337295,-1.23585675,4.5436923
2026-05-10 11:30:54.050,811,1.4412426,0.6883735,-0.5177131333333334,-0.40454551999999994,-1.1443033,4.203822
2026-05-10 11:30:54.060,812,1.449048,0.7241886,-0.6604044,-0.544700915,-1.10917855,4.11776635
2026-05-10 11:30:54.070,813,1.3088720999999999,0.747879,-0.662370975,-2.2417228,-1.0170907,3.4249687
2026-05-10 11:30:54.080,814,1.164702,0.8257189,-0.5215548,-2.8788552,-1.0671816,3.3377676
2026-05-10 11:30:54.090,815,1.164702,0.8257189,-0.5215548,-2.8788552,-1.0671816,3.3377676
2026-05-10 11:30:54.100,816,1.164702,0.8257189,-0.5215548,-2.8788552,-1.0671816,3.3377676
2026-05-10 11:30:54.110,817,1.408131,1.0138396,-0.11744587,-3.8803687,-1.0496192,3.1337388
2026-05-10 11:30:54.120,818,1.408131,1.0138396,-0.11744587,-3.8803687,-1.0496192,3.1337388
2026-05-10 11:30:54.130,819,1.5329959666666666,1.0698591333333334,0.04095768,-3.9910881333333332,-1.0798061333333333,2.939890866666667
2026-05-10 11:30:54.140,820,1.7827259,1.1818982,0.35776478,-4.212527,-1.14018,2.552195
2026-05-10 11:30:54.150,821,1.9473291,1.3117432,0.6037953933333333,-3.7146716666666664,-0.8705847999999999,1.3259848
2026-05-10 11:30:54.160,822,1.9222463,1.4154484,0.9621293,-3.07868445,-0.59704443,0.42646028
2026-05-10 11:30:54.170,823,1.5421326,1.417902825,1.2134245000000001,-2.6916249,-0.45830166,0.14004086
2026-05-10 11:30:54.180,824,1.5200276,1.413619,1.2248886,-2.6916248999999994,-0.45830166,0.14004086
2026-05-10 11:30:54.190,825,1.5200276,1.413619,1.2248886,-2.3064744,-0.383317945,0.0691804903
2026-05-10 11:30:54.200,826,1.641315275,1.424961175,1.1571102,-1.5476271000000001,-0.231136135,-0.0083993972
2026-05-10 11:30:54.210,827,1.6817445,1.4287419,1.1345174,-1.1739303,-0.15393804,-0.015118915
2026-05-10 11:30:54.220,828,2.0705476,1.4874038999999997,0.9673124999999999,-0.6481789400000001,-0.006006840000000004,-0.08485936233333334
2026-05-10 11:30:54.230,829,2.507493925,1.646422425,0.7759598999999999,0.6001751,0.29703322,-0.876057125
2026-05-10 11:30:54.240,830,2.8381534333333334,1.7791486,0.5956241666666666,0.82619524,0.28817567,-1.206917
2026-05-10 11:30:54.250,831,2.9573677,1.82896335,0.3731772525,1.02041221,0.2699642525,-1.8871536500000001
2026-05-10 11:30:54.260,832,2.8610208,1.8161424,0.25275865,1.1281154,0.3203988,-2.4016168
2026-05-10 11:30:54.270,833,2.768881,1.8265699,0.21976891,1.1281154,0.3203988,-2.4016168
2026-05-10 11:30:54.280,834,2.768881,1.8265699,0.21976891,1.1604912,0.39858958,-2.5999951
2026-05-10 11:30:54.290,835,2.8505016,1.7914154999999998,0.06738197700000001,1.021519375,0.5214116875,-3.004273325
2026-05-10 11:30:54.300,836,2.967124266666666,1.6784516333333332,-0.15521230533333333,0.8784242,0.6232353,-3.2688925
2026-05-10 11:30:54.310,837,2.9846253,1.6395469,-0.19031598,0.6948592,0.7441866,-3.4462726000000004
2026-05-10 11:30:54.320,838,2.9846253,1.6395469,-0.19031598,0.5112942,0.8651379,-3.6236527
2026-05-10 11:30:54.330,839,2.8338645000000002,1.4865705,-0.16437950666666665,0.23742296,1.0154107666666667,-3.8780778999999996
2026-05-10 11:30:54.340,840,2.6161892,1.2900753,-0.10360361,-0.20463985,1.1620184,-4.2725444
2026-05-10 11:30:54.350,841,2.6161892,1.2900753,-0.10360361,-0.20463985000000004,1.1620184,-4.2725444
2026-05-10 11:30:54.360,842,2.265559025,1.0100285,0.1761383225,-0.32169691,1.096274075,-4.3223681
2026-05-10 11:30:54.370,843,2.2520826,0.9888992,0.20184104,-0.31100677,1.0639364,-4.30621825
2026-05-10 11:30:54.380,844,2.2520826,0.9888992,0.20184104,-0.29443705,1.0604621,-4.295299
2026-05-10 11:30:54.390,845,2.2594000666666667,0.98924472,0.20088570333333333,-0.25803966333333334,1.1573351666666667,-4.3188683333333335
2026-05-10 11:30:54.400,846,2.274035,0.98993576,0.19897503,-0.18524489,1.3510813,-4.366007
2026-05-10 11:30:54.410,847,2.274035,0.98993576,0.19897503,-0.18524489,1.3510813,-4.366007
2026-05-10 11:30:54.420,848,2.2360451,0.95127505,0.19970676,-0.17409660000000002,1.4543175,-4.549419
2026-05-10 11:30:54.430,849,2.090122,0.8482203,0.23342825,-0.1740966,1.4543175,-4.549419
2026-05-10 11:30:54.440,850,1.9507541000000002,0.75763572,0.26986330000000003,0.0009544799999999937,1.399721375,-4.947512
2026-05-10 11:30:54.450,851,1.5223449333333334,0.4425664733333334,0.28084971666666664,0.6192646633333333,1.4575753666666664,-5.3725596666666675
2026-05-10 11:30:54.460,852,1.3778243,0.33032414,0.2681254,0.816116,1.5028812,-5.4706035
2026-05-10 11:30:54.470,853,1.3778243,0.33032414,0.2681254,1.1166617,1.4947872,-5.5605536
2026-05-10 11:30:54.480,854,1.2150099,0.17159538,0.24513626,1.1166617,1.4947872,-5.560553600000001
2026-05-10 11:30:54.490,855,1.2150099,0.17159538,0.24513626,1.1166617,1.4947872,-5.5605536
2026-05-10 11:30:54.500,856,1.1323831000000002,0.0918346275,0.22367159,1.4013249,1.3695599,-5.556888300000001
2026-05-10 11:30:54.510,857,1.0420882,0.002347697499999999,0.1956973925,1.6859881,1.2443326,-5.553223
2026-05-10 11:30:54.520,858,1.0190839,-0.026830835,0.17616880999999998,1.6859881,1.2443326,-5.553223
2026-05-10 11:30:54.530,859,0.990454105,-0.062457916249999995,0.06023217125,1.74959445,1.19641785,-5.52054175
2026-05-10 11:30:54.540,860,0.9644058333333333,-0.18921834999999998,-0.132324805,1.5898786333333332,1.1607967333333333,-5.344918
2026-05-10 11:30:54.550,861,0.9288347,-0.3518498,-0.19653587,1.0157162,1.5025758,-5.315902
2026-05-10 11:30:54.560,862,0.8413448225,-0.442129445,-0.15075575749999998,1.0157162,1.5025758,-5.315902
2026-05-10 11:30:54.570,863,0.81218153,-0.47222266,-0.13549572,1.0157162,1.5025758,-5.315902
2026-05-10 11:30:54.580,864,0.7773014433333333,-0.47238526,-0.118421544,0.57619864,1.9616411000000002,-5.0955324
2026-05-10 11:30:54.590,865,0.7598614,-0.47246656,-0.109884456,0.57619864,1.9616411,-5.0955324
2026-05-10 11:30:54.600,866,0.7598614,-0.47246656,-0.109884456,0.45076764,1.9565504999999999,-4.817690533333333
2026-05-10 11:30:54.610,867,0.72299948,-0.459478005,-0.094670153,0.38805214,1.9540052,-4.6787696
2026-05-10 11:30:54.620,868,0.68613756,-0.44648945,-0.07945585,0.38805214,1.9540052,-4.6787696
2026-05-10 11:30:54.630,869,0.689415205,-0.4499500125,-0.07408968499999999,0.35453091999999997,1.90299795,-4.5217008
2026-05-10 11:30:54.640,870,0.6988822466666668,-0.4611244433333333,-0.041282897666666665,0.3601050666666667,1.8235854666666667,-4.254676333333333
2026-05-10 11:30:54.650,871,0.690009765,-0.4764302125,0.047563747249999996,0.4382958,1.766775,-4.034765
2026-05-10 11:30:54.660,872,0.5646671,-0.5236281,0.119946025,0.49457176,1.749098075,-4.0252584250000005
2026-05-10 11:30:54.670,873,0.5646671,-0.5236281,0.119946025,0.66339964,1.6960673,-3.9967387
2026-05-10 11:30:54.680,874,0.4050846,-0.5527152,0.13189794,0.74033049,1.652161375,-3.972609475
2026-05-10 11:30:54.690,875,0.20647547,-0.5681429,0.1378739,1.6452892000000001,0.9346238499999999,-3.5776086
2026-05-10 11:30:54.700,876,0.15895236666666665,-0.584465,0.15403338,1.7933476,0.8060367,-3.493691
2026-05-10 11:30:54.710,877,-0.049606557499999995,-0.675191825,0.23323007,2.1653645,0.5761223,-3.2860732
2026-05-10 11:30:54.720,878,-0.15276805,-0.673286275,-0.0026983300000000057,2.9615511000000003,0.16050484999999998,-2.43819235
2026-05-10 11:30:54.730,879,-0.16775368,-0.6678438999999999,-0.06543065,2.891378,0.16844610000000002,-2.0832033
2026-05-10 11:30:54.740,880,-0.6300824949999999,-0.7276186975000001,-0.4807902425,2.8286115,0.169133315,-2.02387295
2026-05-10 11:30:54.750,881,-0.850735625,-0.7425585825,-0.654184485,2.62794215,0.178067215,-1.82923595
2026-05-10 11:30:54.760,882,-0.9467015999999999,-0.7002034333333333,-0.7118098133333334,2.2230912666666662,0.22490021666666668,-1.4613423666666667
2026-05-10 11:30:54.770,883,-0.983594,-0.6798567,-0.73479897,1.6891952,0.30207285,-0.9961685
2026-05-10 11:30:54.780,884,-1.112443,-0.6191215,-0.7107122,1.173319475,0.3887775375,-0.6580545950000001
2026-05-10 11:30:54.790,885,-1.26423545,-0.710056695,-0.53170786,0.40244567000000003,0.45994334,-0.04264603500000001
2026-05-10 11:30:54.800,886,-1.311662,-0.7541904,-0.43630594,0.20280726000000002,0.47403142,0.12492194
2026-05-10 11:30:54.810,887,-1.0934784,-0.88145393,-0.2157443,-0.8416959500000001,0.810007305,2.8446467
2026-05-10 11:30:54.820,888,-1.0934784,-0.88145393,-0.2157443,-1.1658363,0.7724391,4.391663
2026-05-10 11:30:54.830,889,-0.72159697,-0.9366095000000001,-0.10915271024999999,-1.2107349,0.743919325,4.809762075
2026-05-10 11:30:54.840,890,-0.3316657,-0.9762155,-0.016769271,-1.3454307,0.65836,6.0640593
2026-05-10 11:30:54.850,891,-0.07307337133333335,-0.9658897,-0.008882632066666667,-1.3454307000000003,0.65836,6.0640593
2026-05-10 11:30:54.860,892,0.44130620325,-0.9362589275,-0.03256287565,-1.4237741,0.479911005,7.0147182
2026-05-10 11:30:54.870,893,0.56966734,-0.92810297,-0.04177073,-1.5245669,0.16401732,7.948884
2026-05-10 11:30:54.880,894,1.4406939,-0.7646178,-0.08165111,-1.5957327,-0.041335213333333336,8.270199333333332
2026-05-10 11:30:54.890,895,1.995634725,-0.6042273375,-0.1637443025,-1.67251085,-0.19078085,8.45674225
2026-05-10 11:30:54.900,896,2.180615,-0.55076385,-0.1911087,-1.7960966,-0.33108896,8.534398
2026-05-10 11:30:54.910,897,2.290484325,-0.119839308,-0.2814036275,-3.3953799499999997,-0.238275625,6.984327425
2026-05-10 11:30:54.920,898,1.3952236666666666,-0.2190371733333333,0.4839103433333333,-4.4512224,-0.68371093,6.676299
2026-05-10 11:30:54.930,899,1.25147545,-0.233458745,0.826755535,-3.4381023,-1.0901272075000001,7.12284135
2026-05-10 11:30:54.940,900,1.3121039749999999,-0.16703718425,0.753885425,-2.4755313500000002,-1.256015275,7.512229825
2026-05-10 11:30:54.950,901,2.2217759333333333,0.2698328076666667,0.2512138366666667,-1.7092518333333333,-0.9028079066666667,7.6676823
2026-05-10 11:30:54.960,902,2.8339458,0.56143516,0.22001283,-1.725847,-0.81153446,7.5782413
2026-05-10 11:30:54.970,903,2.688236,0.62744513,0.331360795,-1.7059939,-0.78801614,6.3632307
2026-05-10 11:30:54.980,904,2.5425262,0.6934551,0.44270876,-1.5908967,-0.8749117599999999,5.8044416
2026-05-10 11:30:54.990,905,2.3973806250000003,0.70848645,0.47880841999999996,-1.2271518875,-1.1150582249999998,4.43923395
2026-05-10 11:30:55.000,906,1.1041345,0.7679716375000001,0.4269303775,-0.2057470525,-1.5425111,3.460093575
2026-05-10 11:30:55.010,907,0.686412,0.8422442474999999,0.035992957500000006,-0.17150041,-1.5628988,3.8133264
2026-05-10 11:30:55.020,908,0.76974,0.9201756,-0.2643447,-0.42658756,-1.4640913333333332,4.025703766666666
2026-05-10 11:30:55.030,909,0.76974,0.9201756,-0.2643447,-0.93676186,-1.2664764,4.4504585
2026-05-10 11:30:55.040,910,1.09811285,0.99499705,-0.259435865,-2.2545509299999997,-0.6402631504999999,4.5461354
2026-05-10 11:30:55.050,911,1.6016177666666664,1.1268950333333334,-0.028741509999999998,-3.57234,-0.014049900999999998,4.6418123
2026-05-10 11:30:55.060,912,1.9529644999999998,1.235544675,0.31924118749999997,-4.04881485,0.123318425,3.7489565000000002
2026-05-10 11:30:55.070,913,2.847849125,1.553901675,1.325626175,-3.06402365,-0.27282767500000005,2.1675789
2026-05-10 11:30:55.080,914,2.8823633,1.5799093,1.4259978999999998,-2.2272146,-0.5742133,1.2554808
2026-05-10 11:30:55.090,915,1.9131146,1.60016965,1.1709829,-0.07551822500000002,-1.36726915,-0.014508045000000025
2026-05-10 11:30:55.100,916,1.4094114333333334,1.6296073,0.6825398000000001,1.1042917,-1.831374,-0.205098
2026-05-10 11:30:55.110,917,1.3191013,1.6409494,0.48082075,1.1042917,-1.831374,-0.205098
2026-05-10 11:30:55.120,918,2.13253295,1.7968731500000001,0.026312512,0.129159805,-1.22875549,0.14275157500000002
2026-05-10 11:30:55.130,919,2.6177341333333337,1.9385684,-0.009492424,-1.2693779533333334,-0.19420425333333333,-0.22993986
2026-05-10 11:30:55.140,920,2.99459555,2.0394787,0.15212778,-1.9319376,0.491441085,-0.7186066099999999
2026-05-10 11:30:55.150,921,3.23215515,2.02793835,0.470469515,-2.2249238,0.88453287,-1.0578659
2026-05-10 11:30:55.160,922,3.2982413,1.9182215999999999,0.87672795,-1.997223875,1.2275718675,-1.6457855
2026-05-10 11:30:55.170,923,3.2407990000000004,1.8637062,1.0357921,-1.5610661333333333,1.3445653,-2.0773999666666665
2026-05-10 11:30:55.180,924,3.240799,1.8637062,1.0357921,-0.8405506,1.3498595,-2.5486825
2026-05-10 11:30:55.190,925,3.149055775,1.821767925,1.00428115,-0.8405506,1.3498595,-2.5486825
2026-05-10 11:30:55.200,926,3.0590808,1.7147952,0.7322988,1.3356569,0.6053675,-3.2982142
2026-05-10 11:30:55.210,927,3.09365605,1.6168627500000001,0.36121011000000003,1.7744108,0.4992296,-3.5822666
2026-05-10 11:30:55.220,928,3.0860946,1.5823485,0.26178357,1.772960025,0.57009,-3.892357
2026-05-10 11:30:55.230,929,3.0338356,1.4616706,0.09177365,1.6274977,0.6907359,-4.2126794
2026-05-10 11:30:55.240,930,2.956681525,1.36315885,-0.08219992000000001,1.07290845,0.7558693999999999,-4.384256199999999
2026-05-10 11:30:55.250,931,2.9309635,1.3303216,-0.14019111,0.193567945,0.8898016,-4.6601382000000005
2026-05-10 11:30:55.260,932,2.8932581,1.2709685000000002,-0.06406878,-0.26043220666666667,1.0207558333333333,-4.838867266666667
2026-05-10 11:30:55.270,933,2.8178473,1.1522623,0.08817588,-0.51893,1.1450669,-4.987715
2026-05-10 11:30:55.280,934,2.8178473,1.1522623,0.08817588,-0.51893,1.1450669,-4.987715
2026-05-10 11:30:55.290,935,2.8178473,1.1522623,0.08817588,-0.51893,1.1450669,-4.987715
2026-05-10 11:30:55.300,936,1.94087545,0.19717610000000008,0.014208148500000004,0.199905675,0.897208325,-5.0191745
2026-05-10 11:30:55.310,937,1.0639036,-0.7579101,-0.059759583,0.91874135,0.64934975,-5.050634
2026-05-10 11:30:55.320,938,1.0639036,-0.7579101,-0.059759583,0.5874997,0.89476484,-5.2038083
2026-05-10 11:30:55.330,939,1.02230055,-0.7701059325,-0.05314334375,0.553940275,0.92236833,-5.223317850000001
2026-05-10 11:30:55.340,940,0.8185843666666667,-0.8096204366666667,-0.024696563200000004,0.453262,1.0051788,-5.2818465
2026-05-10 11:30:55.350,941,0.6607703,-0.81547445,-0.0075004376,0.41302125,0.9694431699999999,-5.26069525
2026-05-10 11:30:55.360,942,0.6607703,-0.81547445,-0.0075004376,0.3727805,0.93370754,-5.239544
2026-05-10 11:30:55.370,943,0.59582746,-0.8210235,0.0029270000000000003,0.3518583800000001,0.8310821699999998,-5.134322
2026-05-10 11:30:55.380,944,0.45469119999999996,-0.8472445749999999,0.077748435,0.4269948025,0.7602981575,-4.930598825
2026-05-10 11:30:55.390,945,0.3902667,-0.85315955,0.07945585,0.47983465,0.75487673,-4.838511
2026-05-10 11:30:55.400,946,0.25269768,-0.860416,0.053051874,0.5681047,0.8167268,-4.7697887
2026-05-10 11:30:55.410,947,0.1322333325,-0.857367075,0.024955723,0.634459925,0.773431725,-4.7040824500000005
2026-05-10 11:30:55.420,948,-0.3374129775,-0.87003555,-0.0926730875,1.0850493499999998,0.37736199,-4.135519675
2026-05-10 11:30:55.430,949,-0.3734974,-0.8773073,-0.10378654,1.3842206,0.17501289,-3.7177260000000003
2026-05-10 11:30:55.440,950,-0.65052575,-0.8573366200000001,-0.15549688,1.3842206,0.17501289,-3.717726
2026-05-10 11:30:55.450,951,-0.85051708,-0.7750249066666667,-0.21499221333333332,1.5198326666666666,0.09529497866666665,-3.538029733333333
2026-05-10 11:30:55.460,952,-1.0709771,-0.67266124,-0.28959006,1.8434386,-0.12370021,-3.110984
2026-05-10 11:30:55.470,953,-1.1828891,-0.630890505,-0.3315437275,1.8678732,-0.3557144625,-2.7933722
2026-05-10 11:30:55.480,954,-1.5186251000000002,-0.5055783,-0.45740473,1.8018998,-0.61010164,-2.3561072
2026-05-10 11:30:55.490,955,-1.56045685,-0.49393128000000003,-0.4665516075,1.6400204999999999,-0.56543212,-2.0066159
2026-05-10 11:30:55.500,956,-1.6859521,-0.45899022,-0.49399224,1.4781412,-0.5207626,-1.6571246
2026-05-10 11:30:55.510,957,-1.756901375,-0.44087938,-0.5508248275000001,0.999871815,-0.15687782,-0.92538442
2026-05-10 11:30:55.520,958,-1.7385161,-0.32300666,-0.57710683,-0.5102252,0.6232353,1.0621419
2026-05-10 11:30:55.530,959,-1.694794025,-0.326421495,-0.5459007524999999,-0.756785675,0.6579019,1.429997325
2026-05-10 11:30:55.540,960,-1.3173533,-0.37624147,-0.29316752,-1.4964671,0.7619017,2.5335636
2026-05-10 11:30:55.550,961,-1.053842,-0.42593947,-0.13305654,-1.7582229,0.7237226,3.1772628
2026-05-10 11:30:55.560,962,-0.63363457,-0.4617343,0.04622221,-1.83839895,0.5979607250000001,3.88785195
2026-05-10 11:30:55.570,963,-0.47399109666666667,-0.47145030000000004,0.09423314333333332,-1.8493945333333333,0.5149085066666667,4.240728466666667
2026-05-10 11:30:55.580,964,-0.39416936,-0.4763083,0.11823861,-1.772349175,0.39847504,4.6206993
2026-05-10 11:30:55.590,965,0.10512808124999999,-0.5172100925,0.220165295,-1.564349525,0.25843416750000003,5.288718575
2026-05-10 11:30:55.600,966,0.3579477,-0.49960235,0.2497097,-1.2837333333333332,0.11153381,6.4265571
2026-05-10 11:30:55.610,967,0.41946044,-0.5033678125,0.2405628225,-1.2502885,0.09437868,6.659195
2026-05-10 11:30:55.620,968,0.7997621066666666,-0.5014927,0.16785532,-1.3764321,0.27137688,7.3731437
2026-05-10 11:30:55.630,969,1.51054545,-0.38746163499999997,0.005793020000000003,-1.6745343,0.40561453,7.4276633
2026-05-10 11:30:55.640,970,1.97435295,-0.174095515,-0.14174607,-1.84962355,0.35903604499999997,7.18576065
2026-05-10 11:30:55.650,971,1.9911120333333334,-0.015387076666666668,-0.17696154,-2.3141611333333336,-0.14681127333333333,6.3915847999999995
2026-05-10 11:30:55.660,972,1.5724088,0.058722936,-0.03561183,-2.4960717,-0.78549632,6.0382502
2026-05-10 11:30:55.670,973,1.5724088,0.058722936,-0.03561183,-2.5033258000000003,-0.9866491666666667,6.1268258
2026-05-10 11:30:55.680,974,1.5724088,0.058722936,-0.03561183,-2.4932466,-1.1093313,6.2981734
2026-05-10 11:30:55.690,975,1.067364075,0.022028724,0.1794312075,-2.480456575,-1.077795375,6.400416949999999
2026-05-10 11:30:55.700,976,0.9661539,0.016586334,0.28416294,-2.4420865,-0.9831876,6.7071476
2026-05-10 11:30:55.710,977,1.8918584,0.60038055,0.5549307666666667,-1.6344209,-0.7510588333333333,6.184857866666667
2026-05-10 11:30:55.720,978,1.6355426,0.9209683200000001,0.47102343333333335,-0.038433606666666655,-0.9213374666666666,4.2147158
2026-05-10 11:30:55.730,979,0.8929789125,1.012315065,-0.06948575750000001,1.0546207,-1.3265321,4.08214495
2026-05-10 11:30:55.740,980,0.87651455,1.0578055,-0.23970911000000003,0.9984592,-1.233795,4.54331
2026-05-10 11:30:55.750,981,1.0985549375,1.1931793,-0.39182162750000005,0.610407075,-1.05946938,4.6221117
2026-05-10 11:30:55.760,982,1.1725684,1.2383039,-0.4425258,-0.18168151333333335,-0.7424049066666667,4.629493066666666
2026-05-10 11:30:55.770,983,2.1647606,1.6226556,-0.36593598,-0.98975444,-0.4569272,4.4866524
2026-05-10 11:30:55.780,984,2.1616049000000004,1.729308225,-0.129077652,-2.9032898,0.0954477,1.9743165
2026-05-10 11:30:55.790,985,1.8407985,1.8101056666666668,0.5605814966666667,-2.893516,-0.059253927000000005,1.5610662
2026-05-10 11:30:55.800,986,1.53864165,1.8112032500000002,0.8387684750000001,-2.3515258,-0.44845144425,0.975437295
2026-05-10 11:30:55.810,987,1.894013,1.88893645,-0.029178531254999997,-0.38866302,-0.06704246,-0.09315695
2026-05-10 11:30:55.820,988,2.0551808,1.9514553999999997,-0.115250625,-0.7635306399999999,0.13108150666666665,-0.24740043
2026-05-10 11:30:55.830,989,2.08367345,1.956486025,-0.10125590625,-1.1730903124999998,0.3349068675,-0.6588945275
2026-05-10 11:30:55.840,990,2.235039,1.99572615,0.06085721,-1.3446671,0.4195117,-0.9605856
2026-05-10 11:30:55.850,991,2.376907,2.0332894,0.21830542,-1.3446671,0.4195117,-0.9605856
2026-05-10 11:30:55.860,992,2.4147751,2.0246304000000004,0.31578063,-1.0945177799999999,0.34078644,-1.2176835
2026-05-10 11:30:55.870,993,2.4526432,2.0159714,0.41325584,-0.562950505,0.19036088,-1.640974875
2026-05-10 11:30:55.880,994,2.3062932,1.9804205,0.38581519999999997,0.33892839,-0.03700825433333333,-1.9500854333333333
2026-05-10 11:30:55.890,995,2.2763522,1.9599923,0.26245433,0.5748241875,-0.0930042375,-2.0278435249999998
2026-05-10 11:30:55.900,996,2.2763522,1.9599923,0.26245433,0.6737844000000001,-0.10308351,-2.1142046
2026-05-10 11:30:55.910,997,2.2503142499999997,1.9222462999999999,0.138117811,0.6737844,-0.10308351,-2.1142046
2026-05-10 11:30:55.920,998,2.2242763,1.8845003,0.013781292,0.61178154,-0.08200866,-2.2617285
2026-05-10 11:30:55.930,999,2.1448812,1.8107765,-0.051039565,0.54565538,-0.058337631333333334,-2.3134484
2026-05-10 11:30:55.940,1000,2.1448812,1.8107765,-0.051039565,0.41340306,-0.010995574,-2.4168882
2026-05-10 11:30:55.950,1001,2.1448812,1.8107765,-0.051039565,0.41340306,-0.010995574,-2.4168882
