timestamp,id,acc_x,acc_y,acc_z,gyro_x,gyro_y,gyro_z
2026-05-10 11:31:15.320,1,0.7898022,0.12689765,0.97902054,0.54199016,0.087964594,-0.5010622
2026-05-10 11:31:15.330,2,0.75062305,0.11628727,1.0379873700000002,0.52908563,0.301767447,-0.62720587
2026-05-10 11:31:15.340,3,0.7114439,0.10567689,1.0969542,0.5161811,0.5155703,-0.75334954
2026-05-10 11:31:15.350,4,0.7114439,0.10567689,1.0969542,0.5161811,0.5155703,-0.75334954
2026-05-10 11:31:15.360,5,0.7114439,0.10567689,1.0969542,0.5161811,0.5155703,-0.75334954
2026-05-10 11:31:15.370,6,0.7114439,0.10567689,1.0969542,0.5161811,0.5155703,-0.75334954
2026-05-10 11:31:15.380,7,0.6671933666666666,0.10575819800000001,1.1008365333333334,0.5161811,0.5155703,-0.75334954
2026-05-10 11:31:15.390,8,0.5786923,0.105920814,1.1086012,0.5161811,0.5155703,-0.75334954
2026-05-10 11:31:15.400,9,0.5786923,0.105920814,1.1086012,0.5161811,0.5155703,-0.75334954
2026-05-10 11:31:15.410,10,0.5786923,0.10592081400000002,1.1086012,0.5161811,0.5155703,-0.75334954
2026-05-10 11:31:15.420,11,0.5786923,0.10592081400000002,1.1086012,0.5161811,0.5155703,-0.75334954
2026-05-10 11:31:15.430,12,0.5786923,0.105920814,1.1086012,0.5161811,0.5155703,-0.75334954
2026-05-10 11:31:15.440,13,0.5786923,0.105920814,1.1086012,0.5161811,0.5155703,-0.75334954
2026-05-10 11:31:15.450,14,0.5786923,0.10592081400000002,1.1086012,0.5161811,0.5155703,-0.75334954
2026-05-10 11:31:15.460,15,0.46615525,0.0741506685,1.04353648,0.62522055,0.438677615,-0.488692185
2026-05-10 11:31:15.470,16,0.3536182,0.042380523,0.97847176,0.73426,0.36178493,-0.22403483
2026-05-10 11:31:15.480,17,0.35361819999999994,0.042380523,0.97847176,0.73426,0.36178493,-0.22403483
2026-05-10 11:31:15.490,18,0.3536182,0.042380523,0.97847176,0.73426,0.36178493,-0.22403483
2026-05-10 11:31:15.500,19,0.3536182,0.042380523,0.97847176,0.73426,0.36178493,-0.22403483
2026-05-10 11:31:15.510,20,0.3536182,0.042380523,0.97847176,0.73426,0.36178493,-0.22403483
2026-05-10 11:31:15.520,21,0.3536182,0.042380523,0.97847176,0.73426,0.36178493,-0.22403483
2026-05-10 11:31:15.530,22,0.3536182,0.042380523,0.97847176,0.73426,0.36178493,-0.22403483
2026-05-10 11:31:15.540,23,0.35361819999999994,0.042380523,0.97847176,0.73426,0.36178493,-0.22403483
2026-05-10 11:31:15.550,24,0.3536182,0.042380523,0.97847176,0.73426,0.36178493,-0.22403483
2026-05-10 11:31:15.560,25,0.3536182,0.042380523,0.97847176,0.73426,0.36178493,-0.22403483
2026-05-10 11:31:15.570,26,0.3536182,0.042380523,0.97847176,0.73426,0.36178493,-0.22403483
2026-05-10 11:31:15.580,27,0.3536182,0.042380523,0.97847176,0.73426,0.36178493,-0.22403483
2026-05-10 11:31:15.590,28,0.35361819999999994,0.042380523,0.97847176,0.73426,0.36178493,-0.22403483
2026-05-10 11:31:15.600,29,0.3536182,0.042380523,0.97847176,0.6979899,0.41752639,-0.371177015
2026-05-10 11:31:15.610,30,0.3536182,0.042380523,0.97847176,0.6617198,0.47326785,-0.5183192
2026-05-10 11:31:15.620,31,0.4663687,0.07988271,0.9469455,0.83199847,0.08674286,0.15042557
2026-05-10 11:31:15.630,32,0.4663687,0.07988271,0.9469455,0.83199847,0.08674286,0.15042557
2026-05-10 11:31:15.640,33,0.4663687,0.07988271,0.9469455,0.8319984699999999,0.08674286000000002,0.15042557
2026-05-10 11:31:15.650,34,0.4663687,0.07988271,0.9469455,0.83199847,0.08674286,0.15042557
2026-05-10 11:31:15.660,35,0.4663687,0.07988271,0.9469455,0.83199847,0.08674286,0.15042557
2026-05-10 11:31:15.670,36,0.4663687,0.07988271,0.9469455,0.83199847,0.08674286,0.15042557
2026-05-10 11:31:15.680,37,0.53954368,0.0847305525,0.9486834,0.936112795,-0.08219955999999999,0.226363745
2026-05-10 11:31:15.690,38,0.56393534,0.0863465,0.9492627,0.97081757,-0.1385137,0.25167647
2026-05-10 11:31:15.700,39,0.56393534,0.0863465,0.9492626999999999,0.97081757,-0.1385137,0.25167647
2026-05-10 11:31:15.710,40,0.56393534,0.0863465,0.9492627,0.97081757,-0.1385137,0.25167647
2026-05-10 11:31:15.720,41,0.56393534,0.0863465,0.9492627,0.97081757,-0.1385137,0.25167647
2026-05-10 11:31:15.730,42,0.5671367549999999,0.08948692750000001,0.940283525,0.97081757,-0.1385137,0.25167647
2026-05-10 11:31:15.740,43,0.576741,0.09890821,0.913346,0.97081757,-0.1385137,0.25167647
2026-05-10 11:31:15.750,44,0.576741,0.09890821,0.913346,0.97081757,-0.1385137,0.25167647
2026-05-10 11:31:15.760,45,0.576741,0.09890821,0.9133460000000001,0.97081757,-0.1385137,0.25167647
2026-05-10 11:31:15.770,46,0.576741,0.09890821,0.913346,0.97081757,-0.1385137,0.25167647
2026-05-10 11:31:15.780,47,0.576741,0.09890821,0.913346,0.97081757,-0.1385137,0.25167647
2026-05-10 11:31:15.790,48,1.6736343,0.673210055,1.8776400999999998,-0.13041971500000005,0.21723895000000001,-0.12415836500000005
2026-05-10 11:31:15.800,49,2.7705276,1.2475119,2.8419342,-1.231657,0.5729916,-0.4999932
2026-05-10 11:31:15.810,50,2.7705276,1.2475119,2.8419342,-1.231657,0.5729916,-0.4999932
2026-05-10 11:31:15.820,51,2.7705276,1.2475119,2.8419342,-1.231657,0.5729916,-0.4999932
2026-05-10 11:31:15.830,52,2.7705276,1.2475119,2.8419341999999994,-1.231657,0.5729916,-0.4999932
2026-05-10 11:31:15.840,53,2.7705276,1.2475119,2.8419342,-1.231657,0.5729916,-0.4999932
2026-05-10 11:31:15.850,54,2.7705276,1.2475119,2.8419342,-1.231657,0.5729916,-0.4999932
2026-05-10 11:31:15.860,55,2.77741815,1.2423590999999998,2.8185792,-1.231657,0.5729916,-0.4999932
2026-05-10 11:31:15.870,56,2.7843087,1.2372063,2.7952242,-1.231657,0.5729916,-0.4999932
2026-05-10 11:31:15.880,57,2.7843087,1.2372063,2.7952242,-1.231657,0.5729916,-0.4999932
2026-05-10 11:31:15.890,58,2.7843087,1.2372063,2.7952242,-1.231657,0.5729916,-0.4999932
2026-05-10 11:31:15.900,59,2.7843087,1.2372063,2.7952242,-1.231657,0.5729916,-0.4999932
2026-05-10 11:31:15.910,60,2.7843087,1.2372063,2.7952242,-1.231657,0.5729916,-0.4999932
2026-05-10 11:31:15.920,61,2.7843087,1.2372063,2.7952242,-1.231657,0.5729916,-0.4999932
2026-05-10 11:31:15.930,62,2.7843087,1.2372063,2.7952242,-1.231657,0.5729916,-0.4999932
2026-05-10 11:31:15.940,63,2.7843087,1.2372063,2.7952242,-1.231657,0.5729916,-0.4999932
2026-05-10 11:31:15.950,64,2.7843087,1.2372063,2.7952242,-1.231657,0.5729916,-0.4999932
2026-05-10 11:31:15.960,65,2.7843087,1.2372063,2.7952242,-1.231657,0.5729916,-0.4999932
2026-05-10 11:31:15.970,66,2.7843087,1.2372063,2.7952242,-1.231657,0.5729916,-0.4999932
2026-05-10 11:31:15.980,67,2.7843087,1.2372063,2.7952242,-1.231657,0.5729916,-0.4999932
2026-05-10 11:31:15.990,68,2.7843087,1.2372063,2.7952242,-1.231657,0.5729916,-0.4999932
2026-05-10 11:31:16.000,69,2.7843087,1.2372063,2.7952242,-1.03942536,0.6795494,-0.5188918375
2026-05-10 11:31:16.010,70,2.7843087,1.2372063,2.7952242,-0.46273044,0.9992228,-0.57558775
2026-05-10 11:31:16.020,71,2.8247378999999997,1.278977,2.6090242999999997,-0.46273044,0.9992228,-0.57558775
2026-05-10 11:31:16.030,72,2.8651670999999994,1.3207477,2.4228244,-0.46273044,0.9992228,-0.57558775
2026-05-10 11:31:16.040,73,2.8651671,1.3207477,2.4228244,-0.46273044,0.9992228,-0.57558775
2026-05-10 11:31:16.050,74,2.8651671,1.3207477,2.4228244,-0.46273044,0.9992228,-0.57558775
2026-05-10 11:31:16.060,75,2.8651671,1.3207477,2.4228244,-0.46273044,0.9992228,-0.57558775
2026-05-10 11:31:16.070,76,2.8651671,1.3207477,2.4228244,-0.46273044,0.9992228,-0.57558775
2026-05-10 11:31:16.080,77,2.8651670999999994,1.3207477,2.4228244,-0.46273044,0.9992228,-0.57558775
2026-05-10 11:31:16.090,78,2.8651671,1.3207477,2.4228244,-0.46273044,0.9992228,-0.57558775
2026-05-10 11:31:16.100,79,2.8651671,1.3207477,2.4228244,-0.46273044,0.9992228,-0.57558775
2026-05-10 11:31:16.110,80,2.8651671,1.3207477,2.4228244,-0.46273044,0.9992228,-0.57558775
2026-05-10 11:31:16.120,81,2.8651670999999994,1.3207477,2.4228244,-0.46273044,0.9992228,-0.57558775
2026-05-10 11:31:16.130,82,2.8651671,1.3207477,2.4228244,-0.46273044,0.9992228,-0.57558775
2026-05-10 11:31:16.140,83,2.8651671,1.3207477,2.4228244,-0.46273044,0.9992228,-0.57558775
2026-05-10 11:31:16.150,84,2.8651671,1.3207477,2.4228244,-0.46273044,0.9992228,-0.57558775
2026-05-10 11:31:16.160,85,2.8651671,1.3207477,2.4228244,-0.46273044,0.9992228,-0.57558775
2026-05-10 11:31:16.170,86,2.8651670999999994,1.3207477,2.4228244,-0.46273044,0.9992228,-0.57558775
2026-05-10 11:31:16.180,87,2.8651671,1.3207477,2.4228244,-0.08544480500000001,1.065539875,-0.6816492375
2026-05-10 11:31:16.190,88,2.8651671,1.3207477,2.4228244,1.0464121,1.2644911,-0.9998337
2026-05-10 11:31:16.200,89,2.8651671,1.3207477,2.4228244,1.0464121,1.2644911,-0.9998337
2026-05-10 11:31:16.210,90,2.8651671,1.3207477,2.4228244,1.0464121,1.2644911,-0.9998337
2026-05-10 11:31:16.220,91,2.8651671,1.3207477,2.4228244,1.0464121,1.2644911,-0.9998337
2026-05-10 11:31:16.230,92,2.8651670999999994,1.3207477,2.4228244,1.0464121,1.2644911,-0.9998337
2026-05-10 11:31:16.240,93,2.8651671,1.3207477,2.4228244,1.0464121,1.2644911,-0.9998337
2026-05-10 11:31:16.250,94,2.8651671,1.3207477,2.4228244,1.0464121,1.2644911,-0.9998337
2026-05-10 11:31:16.260,95,2.8651671,1.3207477,2.4228244,1.0464121,1.2644911,-0.9998337
2026-05-10 11:31:16.270,96,2.8651671,1.3207477,2.4228244,1.0464121,1.2644911,-0.9998337
2026-05-10 11:31:16.280,97,2.8651671,1.3207477,2.4228244,1.0464121,1.2644911,-0.9998337
2026-05-10 11:31:16.290,98,2.8651671,1.3207477,2.4228244,1.0464121,1.2644911,-0.9998337
2026-05-10 11:31:16.300,99,2.8651670999999994,1.3207477,2.4228244,1.0464121,1.2644911,-0.9998337
2026-05-10 11:31:16.310,100,2.8651671,1.3207477,2.4228244,1.0464121,1.2644911,-0.9998337
2026-05-10 11:31:16.320,101,2.8651671,1.3207477,2.4228244,1.0464121,1.2644911,-0.9998337
2026-05-10 11:31:16.330,102,2.8651671,1.3207477,2.4228244,1.0464121,1.2644911,-0.9998337
2026-05-10 11:31:16.340,103,2.8651671,1.3207477,2.4228244,1.0464121,1.2644911,-0.9998337
2026-05-10 11:31:16.350,104,2.8651670999999994,1.3207477,2.4228244,1.0464121,1.2644911,-0.9998337
2026-05-10 11:31:16.360,105,2.8651671,1.3207477,2.4228244,1.0464121,1.2644911,-0.9998337
2026-05-10 11:31:16.370,106,2.8651671,1.3207477,2.4228244,1.0464121,1.2644911,-0.9998337
2026-05-10 11:31:16.380,107,2.8651671,1.3207477,2.4228244,1.0464121,1.2644911,-0.9998337
2026-05-10 11:31:16.390,108,2.8651671,1.3207477,2.4228244,1.0464121,1.2644911,-0.9998337
2026-05-10 11:31:16.400,109,2.8651671,1.3207477,2.4228244,1.0464121,1.2644911,-0.9998337
2026-05-10 11:31:16.410,110,2.8651671,1.3207477,2.4228244,1.0464121,1.2644911,-0.9998337
2026-05-10 11:31:16.420,111,2.8651670999999994,1.3207477,2.4228244,1.0464121,1.2644911,-0.9998337
2026-05-10 11:31:16.430,112,2.8651671,1.3207477,2.4228244,1.0464121,1.2644911,-0.9998337
2026-05-10 11:31:16.440,113,2.8651671,1.3207477,2.4228244,1.0464121,1.2644911,-0.9998337
2026-05-10 11:31:16.450,114,2.83696425,1.37306785,2.1448508,1.0464121,1.2644911,-0.9998337
2026-05-10 11:31:16.460,115,2.8087614,1.425388,1.8668772,1.0464121,1.2644911,-0.9998337
2026-05-10 11:31:16.470,116,2.8087614,1.425388,1.8668772,1.0464121,1.2644911,-0.9998337
2026-05-10 11:31:16.480,117,2.8087614,1.425388,1.8668772,1.0464121,1.2644911,-0.9998337
2026-05-10 11:31:16.490,118,2.8087614,1.425388,1.8668772,1.4804319000000001,1.11543995,-1.3148111
2026-05-10 11:31:16.500,119,2.8087614,1.425388,1.8668772,1.9144517,0.9663888,-1.6297885
2026-05-10 11:31:16.510,120,2.8087614,1.425388,1.8668772,1.9144517,0.9663888,-1.6297885
2026-05-10 11:31:16.520,121,2.8087614,1.425388,1.8668772,1.9144517,0.9663888,-1.6297885
2026-05-10 11:31:16.530,122,2.8087614,1.425388,1.8668772,1.9144517,0.9663888,-1.6297885
2026-05-10 11:31:16.540,123,2.8087614,1.425388,1.8668772,1.9144517,0.9663888000000002,-1.6297885
2026-05-10 11:31:16.550,124,2.8087614,1.425388,1.8668772,1.9144517,0.9663888,-1.6297885
2026-05-10 11:31:16.560,125,2.8087614,1.425388,1.8668772,1.9144517,0.9663888,-1.6297885
2026-05-10 11:31:16.570,126,2.6671983,1.46956745,1.66415195,1.9144517,0.9663888,-1.6297885
2026-05-10 11:31:16.580,127,2.5256352,1.5137469,1.4614267,1.9144517,0.9663888,-1.6297885
2026-05-10 11:31:16.590,128,2.5256352,1.5137469,1.4614267,1.9144517,0.9663888,-1.6297885
2026-05-10 11:31:16.600,129,2.5256352,1.5137469,1.4614266999999999,1.9144517,0.9663888000000002,-1.6297885
2026-05-10 11:31:16.610,130,2.5256352,1.5137469,1.4614267,1.9144517,0.9663888,-1.6297885
2026-05-10 11:31:16.620,131,2.5256352,1.5137469,1.4614267,2.11084485,0.7840455500000001,-1.93002875
2026-05-10 11:31:16.630,132,2.5256352,1.5137469,1.4614267,2.307238,0.6017023,-2.230269
2026-05-10 11:31:16.640,133,2.5256352,1.5137469,1.4614267,2.307238,0.6017023,-2.230269
2026-05-10 11:31:16.650,134,2.5256352,1.5137469,1.4614267,2.307238,0.6017023,-2.230269
2026-05-10 11:31:16.660,135,2.5256352,1.5137469,1.4614267,2.307238,0.6017023,-2.230269
2026-05-10 11:31:16.670,136,2.5256352,1.5137469,1.4614267,2.307238,0.6017023,-2.230269
2026-05-10 11:31:16.680,137,2.5256352,1.5137469,1.4614266999999999,2.307238,0.6017023,-2.230269
2026-05-10 11:31:16.690,138,2.5256352,1.5137469,1.4614267,2.307238,0.6017023,-2.230269
2026-05-10 11:31:16.700,139,2.5256352,1.5137469,1.4614267,2.307238,0.6017023,-2.230269
2026-05-10 11:31:16.710,140,2.5256352,1.5137469,1.4614267,2.307238,0.6017023,-2.230269
2026-05-10 11:31:16.720,141,2.5256352,1.5137469,1.4614267,2.307238,0.6017023,-2.230269
2026-05-10 11:31:16.730,142,2.5256352,1.5137469,1.4614266999999999,2.307238,0.6017023,-2.230269
2026-05-10 11:31:16.740,143,2.5256352,1.5137469,1.4614267,2.3039928,0.5989534000000001,-2.3264421
2026-05-10 11:31:16.750,144,2.2193367,1.5735674,1.1809226,2.2942572,0.5907067,-2.6149614
2026-05-10 11:31:16.760,145,2.2193367,1.5735674,1.1809226,2.2942572,0.5907067,-2.6149614
2026-05-10 11:31:16.770,146,2.2193367,1.5735674,1.1809226,2.2942572,0.5907067,-2.6149614
2026-05-10 11:31:16.780,147,2.2193367,1.5735674,1.1809226,2.2942572,0.5907067,-2.6149614
2026-05-10 11:31:16.790,148,2.2193367,1.5735674,1.1809226,2.2942572,0.5907067,-2.6149614
2026-05-10 11:31:16.800,149,2.2193367,1.5735674,1.1809226,2.2942572,0.5907067,-2.6149614
2026-05-10 11:31:16.810,150,2.2193367,1.5735674,1.1809226,2.2942572,0.5907067,-2.6149614
2026-05-10 11:31:16.820,151,2.2193367,1.5735674,1.1809226,2.2942572,0.5907067,-2.6149614
2026-05-10 11:31:16.830,152,2.2193367,1.5735674,1.1809226,2.2942572,0.5907067,-2.6149614
2026-05-10 11:31:16.840,153,2.2193367,1.5735674,1.1809226,2.2942572,0.5907067,-2.6149614
2026-05-10 11:31:16.850,154,2.1409786,1.6027155,1.0798801,2.2632558,0.626136875,-2.6496662
2026-05-10 11:31:16.860,155,2.1330207999999997,1.5803361,1.04253035,2.05334725,0.8843037499999999,-2.91512535
2026-05-10 11:31:16.870,156,2.125063,1.5579567,1.0051806,1.9364429,1.0361801,-3.0764701
2026-05-10 11:31:16.880,157,2.125063,1.5579567,1.0051806,1.9364429,1.0361801,-3.0764701
2026-05-10 11:31:16.890,158,2.05161355,1.4393676000000002,0.9823134,2.1429535,0.88392202,-3.8019872
2026-05-10 11:31:16.900,159,2.0271304,1.3998379,0.974691,2.2026274,0.81321436,-3.9377902
2026-05-10 11:31:16.910,160,2.0271304,1.3998379000000003,0.974691,2.2026274,0.81321436,-3.9377902
2026-05-10 11:31:16.920,161,2.0271304,1.3998379,0.974691,2.3883305,0.6612616,-4.1105123
2026-05-10 11:31:16.930,162,1.961776,1.3471060750000001,0.925343625,2.3883305,0.6612616,-4.1105123
2026-05-10 11:31:16.940,163,1.9399912,1.3295288,0.9088945,2.3883305,0.6612616,-4.1105123
2026-05-10 11:31:16.950,164,1.9399912,1.3295288,0.9088945,2.3883305,0.6612616,-4.1105123
2026-05-10 11:31:16.960,165,1.9399912,1.3295288,0.9088945,2.3883305,0.6612616,-4.1105123
2026-05-10 11:31:16.970,166,1.9399912,1.3295288,0.9088945,2.3883305,0.6612616,-4.1105123
2026-05-10 11:31:16.980,167,1.9399912,1.3295288,0.9088945,2.3883305,0.6612616,-4.1105123
2026-05-10 11:31:16.990,168,1.9399912,1.3295288,0.9088945,2.3883305,0.6612616,-4.1105123
2026-05-10 11:31:17.000,169,1.9399912,1.3295288,0.9088945,2.3883305,0.6612616,-4.1105123
2026-05-10 11:31:17.010,170,1.9399912,1.3295288,0.9088945,2.5077037333333334,0.5316563666666667,-4.2602252
2026-05-10 11:31:17.020,171,1.9399912,1.3295288,0.9088945,2.7464502,0.2724459,-4.559651
2026-05-10 11:31:17.030,172,1.9399912,1.3295288,0.9088945,2.7464502,0.2724459,-4.559651
2026-05-10 11:31:17.040,173,1.9399912,1.3295288,0.9088945,2.7464502,0.2724459,-4.559651
2026-05-10 11:31:17.050,174,1.8806585,1.2133635,0.8334022,2.7464502,0.2724459,-4.559651
2026-05-10 11:31:17.060,175,1.8806585,1.2133635,0.8334022,2.7464502,0.2724459,-4.559651
2026-05-10 11:31:17.070,176,1.8806585,1.2133635,0.8334022,2.7464502,0.2724459,-4.559651
2026-05-10 11:31:17.080,177,1.8982001333333334,1.2461906,0.33841399999999994,0.3412191333333334,0.10837767333333334,-2.6600637000000003
2026-05-10 11:31:17.090,178,1.9157417666666667,1.2790177,-0.1565742000000001,-2.064011933333333,-0.05569055333333334,-0.7604764000000004
2026-05-10 11:31:17.100,179,1.9332834,1.3118448,-0.6515624,-4.469243,-0.21975878,1.1391109
2026-05-10 11:31:17.110,180,1.9332834,1.3118448,-0.6515624,-4.469243,-0.21975878,1.1391109
2026-05-10 11:31:17.120,181,1.890537,1.2691594,-0.52472574,-4.739652599999999,-0.4101450933333333,1.0548115
2026-05-10 11:31:17.130,182,1.936683075,1.252420675,-0.047716200000000014,-5.26061885,-0.8530733125,0.950468125
2026-05-10 11:31:17.140,183,1.9520651,1.2468411,0.11128698,-5.389206,-0.968985,0.9297369
2026-05-10 11:31:17.150,184,1.9520650999999998,1.2468411,0.11128698,-5.389205999999999,-0.968985,0.9297369
2026-05-10 11:31:17.160,185,2.471013125,1.3671225,0.891058095,-4.67174475,-0.594677325,0.77625702
2026-05-10 11:31:17.170,186,2.6439958,1.4072163,1.1509818,-4.432591,-0.4699081,0.72509706
2026-05-10 11:31:17.180,187,2.6439958,1.4072163,1.1509818,-4.432591,-0.4699081,0.72509706
2026-05-10 11:31:17.190,188,2.6439958,1.4072163,1.1509818,-3.921144,-0.363541175,0.560774295
2026-05-10 11:31:17.200,189,3.1363719249999997,1.601358675,1.3798366499999999,-3.409697,-0.25717425,0.39645153
2026-05-10 11:31:17.210,190,3.3004973,1.6660728,1.4561216,-3.409697,-0.25717425,0.39645153
2026-05-10 11:31:17.220,191,3.3004973,1.6660728,1.4561216000000001,-3.409697,-0.25717425,0.39645153
2026-05-10 11:31:17.230,192,3.3004973,1.6660728,1.4561216,-3.409697,-0.25717425,0.39645153
2026-05-10 11:31:17.240,193,3.3004973,1.6660728,1.4561216,-3.409697,-0.25717425,0.39645153
2026-05-10 11:31:17.250,194,3.716039975,1.9062696749999999,1.482556025,-2.223893075,-0.23529765,-0.21666627
2026-05-10 11:31:17.260,195,4.0699325,2.0034096,1.1947647,-1.8286251,-0.22800545,-0.42103887
2026-05-10 11:31:17.270,196,4.0699325,2.0034096,1.1947647,-1.3404419666666667,-0.26704992666666666,-0.8018624466666666
2026-05-10 11:31:17.280,197,4.0699325,2.0034096,1.1947647,-0.3640757,-0.34513888,-1.5635096
2026-05-10 11:31:17.290,198,4.0699325,2.0034096,1.1947647,-0.3640757,-0.34513888,-1.5635096
2026-05-10 11:31:17.300,199,4.0699325,2.0034096,1.1947647,-0.36407570000000006,-0.34513888,-1.5635096
2026-05-10 11:31:17.310,200,4.0699325,2.0034096,1.1947647,-0.04214971000000001,-0.32177327499999997,-1.8912388
2026-05-10 11:31:17.320,201,4.0699325,2.0034096,1.1947647,0.27977628,-0.29840767,-2.218968
2026-05-10 11:31:17.330,202,3.9459926000000003,1.7404827,0.5567702625,0.757396545,0.0340939175,-3.0182088
2026-05-10 11:31:17.340,203,3.9046793,1.6528404,0.34410545,0.9166033,0.14492778,-3.2846224
2026-05-10 11:31:17.350,204,3.7349942333333335,1.4926278,0.03530694333333332,0.8010479666666667,0.4594215666666666,-3.8055888
2026-05-10 11:31:17.360,205,3.6501517,1.4125215,-0.11909231,0.7432703,0.61666846,-4.066072
2026-05-10 11:31:17.370,206,3.6501517,1.4125215,-0.11909231,0.7432703,0.61666846,-4.066072
2026-05-10 11:31:17.380,207,3.6501517,1.4125215,-0.11909231,0.7432703,0.61666846,-4.066072
2026-05-10 11:31:17.390,208,3.6501517,1.4125215,-0.11909231,0.7432703,0.61666846,-4.066072
2026-05-10 11:31:17.400,209,3.5255103,1.2972302333333332,-0.20560142333333334,0.4996368733333334,0.7547240199999999,-4.348393333333333
2026-05-10 11:31:17.410,210,3.4631896,1.2395846,-0.24885598,0.37782016,0.8237518,-4.489554
2026-05-10 11:31:17.420,211,3.4631896,1.2395846,-0.24885598,0.37782016,0.8237518,-4.489554
2026-05-10 11:31:17.430,212,3.4631896,1.2395846,-0.24885598,0.08597928475000001,0.926262625,-4.790901525000001
2026-05-10 11:31:17.440,213,3.4631896,1.2395846,-0.24885598,-0.011301007,0.9604329000000001,-4.8913507
2026-05-10 11:31:17.450,214,3.19976,1.0207303,-0.22952558,-0.011301007,0.9604329,-4.8913507
2026-05-10 11:31:17.460,215,3.19976,1.0207303,-0.22952558,-0.011301007,0.9604329,-4.8913507
2026-05-10 11:31:17.470,216,3.19976,1.0207303,-0.22952558,-0.011301007,0.9604329,-4.8913507
2026-05-10 11:31:17.480,217,3.0356853333333333,0.9040161933333334,-0.16041586,-0.011301007,0.9604329000000001,-4.8913507
2026-05-10 11:31:17.490,218,2.953648,0.84565914,-0.125861,-0.011301007,0.9604329,-4.8913507
2026-05-10 11:31:17.500,219,2.953648,0.84565914,-0.125861,-0.1626428635,0.9927324000000001,-4.96412015
2026-05-10 11:31:17.510,220,2.953648,0.84565914,-0.125861,-0.31398472,1.0250319,-5.0368896
2026-05-10 11:31:17.520,221,2.65262425,0.70905051,-0.006540015500000001,-0.31398472,1.0250319,-5.0368896
2026-05-10 11:31:17.530,222,2.552283,0.6635143,0.033233646,-0.54660988,1.1946615,-5.1491361
2026-05-10 11:31:17.540,223,2.552283,0.6635143,0.033233646,-0.6241516,1.2512047,-5.1865516
2026-05-10 11:31:17.550,224,2.552283,0.6635143,0.033233646,-0.6241516,1.2512047,-5.1865516
2026-05-10 11:31:17.560,225,2.552283,0.6635143,0.033233646,-0.6241516,1.2512047,-5.1865516
2026-05-10 11:31:17.570,226,2.552283,0.6635143,0.033233646,-0.68676525,1.3391693,-5.135544299999999
2026-05-10 11:31:17.580,227,2.4056484333333334,0.6274349766666667,0.079293244,-0.7493789,1.4271339,-5.084537
2026-05-10 11:31:17.590,228,2.1123793,0.55527633,0.17141244,-0.7493789,1.4271339,-5.084537
2026-05-10 11:31:17.600,229,1.8169354,0.4724056,0.27952853,-0.7901542,1.6183348,-4.777119
2026-05-10 11:31:17.610,230,1.8169354,0.4724056,0.27952853,-0.7901542,1.6183348,-4.777119
2026-05-10 11:31:17.620,231,1.7984586999999999,0.461505575,0.3069386575,-0.766635875,1.645671,-4.693583125
2026-05-10 11:31:17.630,232,1.8960862,0.43722062999999994,0.44770905,-0.50900346,1.8052595,-4.2934666
2026-05-10 11:31:17.640,233,1.8960862,0.43722063,0.44770905,-0.22518020249999998,1.751770625,-4.4439682000000005
2026-05-10 11:31:17.650,234,1.8960862,0.43722063,0.44770905,-0.13057245,1.733941,-4.4941354
2026-05-10 11:31:17.660,235,1.8960862,0.43722063,0.44770905,-0.13057245,1.733941,-4.4941354
2026-05-10 11:31:17.670,236,1.741687,0.38276625,0.56234986,0.20219639,1.425454,-4.732373
2026-05-10 11:31:17.680,237,1.741687,0.38276625,0.56234986,0.20219639,1.425454,-4.732373
2026-05-10 11:31:17.690,238,1.741687,0.38276625,0.56234986,0.20219639,1.425454,-4.732373
2026-05-10 11:31:17.700,239,1.741687,0.38276625,0.56234986,0.20219639,1.425454,-4.732373
2026-05-10 11:31:17.710,240,1.741687,0.38276625,0.56234986,0.20219639,1.425454,-4.732373
2026-05-10 11:31:17.720,241,1.5850925,0.34075159,0.65119651,0.36816084250000003,1.31771265,-4.77803525
2026-05-10 11:31:17.730,242,1.428498,0.29873693,0.74004316,0.8660542000000001,0.9944886,-4.915022
2026-05-10 11:31:17.740,243,1.428498,0.29873693,0.74004316,0.8660542,0.9944886,-4.915022
2026-05-10 11:31:17.750,244,1.428498,0.29873693,0.74004316,0.8660542,0.9944886,-4.915022
2026-05-10 11:31:17.760,245,1.428498,0.29873693,0.74004316,1.701107,0.57864213,-4.934264
2026-05-10 11:31:17.770,246,1.428498,0.29873693,0.74004316,1.7011069999999997,0.57864213,-4.934264
2026-05-10 11:31:17.780,247,1.235224575,0.20155139,0.7669349875,1.701107,0.57864213,-4.934264
2026-05-10 11:31:17.790,248,1.1708001,0.16915621,0.77589893,1.701107,0.57864213,-4.934264
2026-05-10 11:31:17.800,249,1.1708001,0.16915621,0.77589893,2.3258693,0.30680707,-4.871192
2026-05-10 11:31:17.810,250,1.1708001,0.16915621,0.77589893,2.3258693,0.30680707,-4.871192
2026-05-10 11:31:17.820,251,1.1708001,0.16915621,0.77589893,2.3258693,0.30680707,-4.871192
2026-05-10 11:31:17.830,252,1.1087842499999998,0.1408466315,0.7539769224999999,2.3258693,0.30680707,-4.871192
2026-05-10 11:31:17.840,253,0.9227367,0.055917896,0.6882109,2.3258693,0.30680707,-4.871192
2026-05-10 11:31:17.850,254,0.9227367,0.055917896,0.6882109,2.3258693,0.30680707,-4.871192
2026-05-10 11:31:17.860,255,0.8407807666666667,-0.02010279933333333,0.5484466333333333,2.3258693,0.30680707,-4.871192
2026-05-10 11:31:17.870,256,0.7998028,-0.058113147,0.4785645,2.3258693,0.30680707,-4.871192
2026-05-10 11:31:17.880,257,0.7998028,-0.058113147,0.4785645,2.46984265,0.24144448825,-4.837632675
2026-05-10 11:31:17.890,258,0.738427225,-0.14189852175,0.296953305,3.1051807,0.008132143,-4.65254055
2026-05-10 11:31:17.900,259,0.7179687,-0.16982698,0.23641623999999997,3.1729867000000005,-0.004276057,-4.6244025
2026-05-10 11:31:17.910,260,0.7179687,-0.16982698,0.23641624,3.1729867,-0.004276057,-4.6244025
2026-05-10 11:31:17.920,261,0.66819445,-0.19164228,0.18479737325,3.1729867,-0.004276057,-4.6244025
2026-05-10 11:31:17.930,262,0.41526811,-0.27355255,0.0002744080000000003,3.074790175,0.31898618575,-4.45397125
2026-05-10 11:31:17.940,263,0.31166452,-0.29001692,-0.029391957,2.9866729,0.5198463,-4.341572
2026-05-10 11:31:17.950,264,0.31166452,-0.29001692,-0.029391957,2.9866729,0.5198463,-4.341572
2026-05-10 11:31:17.960,265,0.31166452,-0.29001692,-0.029391957,2.9866729,0.5198463,-4.341572
2026-05-10 11:31:17.970,266,0.31166452,-0.29001692,-0.029391957,2.9866729,0.5198463,-4.341572
2026-05-10 11:31:17.980,267,0.16061912,-0.33319017,0.08433419,2.6919305,0.6391178,-3.5326338
2026-05-10 11:31:17.990,268,0.29367567333333333,-0.36014297666666667,0.08868403666666667,2.6919305,0.6391178,-3.5326338000000006
2026-05-10 11:31:18.000,269,0.36020395,-0.37361938,0.09085896,2.8541151499999997,0.12289846249999999,-3.3767487000000003
2026-05-10 11:31:18.010,270,0.36020395,-0.37361938,0.09085896,2.9081767,-0.04917465,-3.324787
2026-05-10 11:31:18.020,271,0.42802801,-0.37018927,0.0440269575,2.912414575,-0.1287780375,-3.3182582500000004
2026-05-10 11:31:18.030,272,0.5264941,-0.36965573,-0.05793021,2.9138272,-0.1553125,-3.316082
2026-05-10 11:31:18.040,273,0.5264941,-0.36965573,-0.05793021,2.9138272,-0.1553125,-3.316082
2026-05-10 11:31:18.050,274,0.5264941,-0.36965573,-0.05793021,2.795739325,-0.07089854949999999,-3.3810245
2026-05-10 11:31:18.060,275,0.5264941,-0.36965573,-0.05793021,2.7563767,-0.042760566,-3.402672
2026-05-10 11:31:18.070,276,0.5264941,-0.36965573,-0.05793021,2.7563767,-0.042760566,-3.402672
2026-05-10 11:31:18.080,277,0.5264941,-0.36965573,-0.05793021,2.7563767,-0.042760566,-3.4026720000000004
2026-05-10 11:31:18.090,278,0.5034287375,-0.4011362275,-0.1035121375,2.5128323750000003,0.1803961505,-3.4573445
2026-05-10 11:31:18.100,279,0.43423265,-0.49557772,-0.24025792,1.7821994,0.8498663,-3.621362
2026-05-10 11:31:18.110,280,0.2723939425,-0.48469293,-0.20728343500000002,1.3682617750000001,1.2176453,-3.5506542750000003
2026-05-10 11:31:18.120,281,0.12567806,-0.4598439,-0.17714448000000002,0.9673051,1.5180001,-3.4213035
2026-05-10 11:31:18.130,282,0.12567806,-0.4598439,-0.17714448,0.9673051,1.5180001,-3.4213035
2026-05-10 11:31:18.140,283,0.07445556,-0.45252642,-0.18171792,0.7111999,1.5858061,-3.2443054
2026-05-10 11:31:18.150,284,0.07445556,-0.45252642,-0.18171792,0.7111999,1.5858061,-3.2443054
2026-05-10 11:31:18.160,285,0.07445556,-0.45252642000000004,-0.18171792,0.7111999,1.5858061,-3.2443054
2026-05-10 11:31:18.170,286,0.06954673825,-0.461307415,-0.16994894,0.5911648675,1.6445255250000002,-3.15126295
2026-05-10 11:31:18.180,287,0.054820273,-0.4876504,-0.134642,0.23105977,1.8206838,-2.8721356
2026-05-10 11:31:18.190,288,0.054820273,-0.4876504,-0.134642,0.23105977,1.8206838,-2.8721356
2026-05-10 11:31:18.200,289,0.054820273,-0.4876504,-0.134642,0.23105977,1.8206838,-2.8721356
2026-05-10 11:31:18.210,290,0.025428312,-0.4309398,-0.09177365,0.0096211275,2.0534234,-2.663067
2026-05-10 11:31:18.220,291,0.032654343,-0.4206037875,-0.058113149,-0.113162788125,2.3098722499999997,-2.56044165
2026-05-10 11:31:18.230,292,0.03506302,-0.41715845,-0.046892982,-0.15409076,2.3953552,-2.5262332
2026-05-10 11:31:18.240,293,-0.012134855,-0.43536075500000004,0.014208149000000003,-0.15420529249999998,2.7011697999999997,-2.471942575
2026-05-10 11:31:18.250,294,-0.05933273,-0.45356306,0.07530928,-0.15424347,2.803108,-2.4538457
2026-05-10 11:31:18.260,295,-0.05933273,-0.45356306,0.07530928,-0.15424347,2.803108,-2.4538457
2026-05-10 11:31:18.270,296,-0.184324775,-0.444141785,0.15589324000000002,0.036804630000000005,2.95399165,-2.3660337499999997
2026-05-10 11:31:18.280,297,-0.22598879,-0.44100136,0.18275456,0.22785273,3.1048753,-2.2782218
2026-05-10 11:31:18.290,298,-0.22598879,-0.44100136,0.18275456,0.22785273,3.1048753,-2.2782218
2026-05-10 11:31:18.300,299,-0.22598879000000002,-0.44100136,0.18275456,0.22785273000000003,3.1048753,-2.2782218
2026-05-10 11:31:18.310,300,-0.22598879,-0.44100136,0.18275456,0.22785273,3.1048753,-2.2782218
2026-05-10 11:31:18.320,301,-0.694186835,-0.393285155,0.16665606500000002,2.46369585,1.23845295,-1.1656836
2026-05-10 11:31:18.330,302,0.6300977324999999,0.5287960725,0.2580333425,0.797828175,-0.21849887499999987,1.4217887
2026-05-10 11:31:18.340,303,1.9543823,1.4508773,0.34941062,-0.8680395,-1.6754507,4.009261
2026-05-10 11:31:18.350,304,1.9543823,1.4508773,0.34941062,-0.8680395,-1.6754507,4.009261
2026-05-10 11:31:18.360,305,1.9543823,1.4508773,0.34941062,-0.8680395,-1.6754507,4.009261
2026-05-10 11:31:18.370,306,1.9543823,1.4508773,0.34941062,-0.8680395,-1.6754507,4.009261
2026-05-10 11:31:18.380,307,1.8929609749999998,1.601617925,-0.0451398325,-0.5945627600000001,-0.554054775,2.27631295
2026-05-10 11:31:18.390,308,1.8724872,1.6518648,-0.17665665,-0.64461553,-0.4279111,2.0071504
2026-05-10 11:31:18.400,309,1.8724872,1.6518648,-0.17665665,-0.64461553,-0.4279111,2.0071504
2026-05-10 11:31:18.410,310,1.8724872,1.6518648,-0.17665665,-0.64461553,-0.4279111,2.0071504
2026-05-10 11:31:18.420,311,1.7846773,1.7135147,-0.41441444,-0.9407325,-0.45723262,1.5935947
2026-05-10 11:31:18.430,312,1.639425,1.7261983,-0.4841136,-1.999362,-0.5401576,0.8402451
2026-05-10 11:31:18.440,313,1.639425,1.7261983,-0.4841136,-1.999362,-0.5401576,0.8402451
2026-05-10 11:31:18.450,314,1.639425,1.7261983,-0.4841136,-1.9993620000000003,-0.5401576,0.8402451000000001
2026-05-10 11:31:18.460,315,1.639425,1.7261983,-0.4841136,-1.999362,-0.5401576,0.8402451
2026-05-10 11:31:18.470,316,1.5824246499999999,1.591220925,-0.2796047325,-2.2530238000000002,-0.37785833750000003,0.662521505
2026-05-10 11:31:18.480,317,1.527955,1.5084417,-0.12781233,-3.0140092,0.10903945,0.12935072
2026-05-10 11:31:18.490,318,1.527955,1.5084417,-0.12781233,-3.0140092,0.10903945,0.12935072
2026-05-10 11:31:18.500,319,1.5279549999999997,1.5084416999999999,-0.12781233,-3.0140092,0.10903945,0.12935072
2026-05-10 11:31:18.510,320,1.5047218999999998,1.47103095,0.007104075000000001,-3.1507666,0.474336875,-0.009010265000000003
2026-05-10 11:31:18.520,321,1.5003771000000001,1.449215625,0.20458509749999998,-3.25888975,1.062065625,-0.20750328750000002
2026-05-10 11:31:18.530,322,1.5066732,1.4544141,0.22543996999999996,-3.249345,1.1362094,-0.2275473
2026-05-10 11:31:18.540,323,1.589818275,1.620750075,0.3138445475,-2.9739975,1.11353105,-0.273247665
2026-05-10 11:31:18.550,324,1.6175333,1.6761954,0.34331274,-2.882215,1.1059716,-0.28848112
2026-05-10 11:31:18.560,325,1.6175333,1.6761954,0.34331274,-2.882215,1.1059716,-0.28848112
2026-05-10 11:31:18.570,326,1.6175333,1.6761954,0.34331274,-2.882215,1.1059716,-0.28848112
2026-05-10 11:31:18.580,327,1.9856034499999997,1.867868175,0.5067216299999999,-2.333658,0.2602286,-0.29917124
2026-05-10 11:31:18.590,328,2.1082935,1.9317591,0.56119126,-2.333658,0.2602286,-0.29917124
2026-05-10 11:31:18.600,329,2.1082935,1.9317591,0.56119126,-2.333658,0.2602286,-0.29917124
2026-05-10 11:31:18.610,330,2.1082935,1.9317591,0.56119126,-2.333658,0.2602286,-0.29917124
2026-05-10 11:31:18.620,331,2.22095255,1.9790027000000001,0.6308904575,-2.09774945,0.023327414999999962,-0.34445163
2026-05-10 11:31:18.630,332,2.9961505,2.3228796,1.0131688,-0.23930646,-1.066418,-1.0311406
2026-05-10 11:31:18.640,333,3.082009166666667,2.321131333333333,0.8927553333333332,0.11448633333333331,-0.9836457800000001,-1.3298536
2026-05-10 11:31:18.650,334,3.0999065249999997,2.28394415,0.7385187249999999,0.68600166,-0.12873985,-2.2194262
2026-05-10 11:31:18.660,335,3.0248106,2.175005,0.4564291,0.6633996525,0.005955937500000008,-2.312697675
2026-05-10 11:31:18.670,336,2.912853,2.057437,0.15378946,0.59559363,0.4100433,-2.5925121
2026-05-10 11:31:18.680,337,2.912853,2.057437,0.15378946,0.59559363,0.4100433,-2.5925121
2026-05-10 11:31:18.690,338,2.912853,2.057437,0.15378946,0.5475897966666666,0.4407392666666667,-2.6653578
2026-05-10 11:31:18.700,339,2.912853,2.057437,0.15378946,0.45158213,0.5021312,-2.8110492
2026-05-10 11:31:18.710,340,2.883415275,2.000604425,0.12869653325,0.45158213,0.5021312,-2.8110492
2026-05-10 11:31:18.720,341,2.7951021,1.8301067,0.053417753,0.45158213,0.5021312,-2.8110492
2026-05-10 11:31:18.730,342,2.7951021,1.8301067,0.053417753,0.3076088225,0.423329615,-3.0634892999999996
2026-05-10 11:31:18.740,343,2.7951021,1.8301067,0.053417753,0.22201133,0.40992876500000003,-3.1916946
2026-05-10 11:31:18.750,344,2.7951021,1.8301067,0.05341775299999999,0.10919216,0.4485278,-3.3238704
2026-05-10 11:31:18.760,345,2.7951021,1.8301067,0.053417753,0.10919216,0.4485278,-3.3238704
2026-05-10 11:31:18.770,346,2.7951021,1.8301067,0.053417753,0.10919216,0.4485278,-3.3238704
2026-05-10 11:31:18.780,347,2.7951021,1.8301067,0.053417753,0.10919216,0.4485278,-3.3238704
2026-05-10 11:31:18.790,348,2.6074386499999997,1.6583284,0.1208302215,0.10919216,0.4485278,-3.3238704
2026-05-10 11:31:18.800,349,2.4197752,1.4865500999999999,0.18824268999999996,0.10919216,0.4485278,-3.3238704
2026-05-10 11:31:18.810,350,2.4197752,1.4865501,0.18824269,0.10919216,0.4485278,-3.3238704
2026-05-10 11:31:18.820,351,2.3376668499999997,1.4248697,0.246172895,0.10919216,0.4485278,-3.3238704
2026-05-10 11:31:18.830,352,2.2555585,1.3631893,0.3041031,-0.262252075,0.861434525,-3.5965836
2026-05-10 11:31:18.840,353,2.2555585,1.3631893,0.3041031,-0.38606682,0.9990701,-3.687488
2026-05-10 11:31:18.850,354,2.2555585,1.3631893,0.3041031,-0.36814812,1.2099204333333333,-3.7602828
2026-05-10 11:31:18.860,355,2.0580317249999998,1.2328005874999999,0.39669997500000004,-0.280845301,1.328364675,-3.7662133
2026-05-10 11:31:18.870,356,1.299588,0.7460191,0.6910769,0.088117313,1.3392457000000002,-3.5928803
2026-05-10 11:31:18.880,357,1.299588,0.7460191000000002,0.6910769,0.22204952,1.3110695,-3.5109480000000004
2026-05-10 11:31:18.890,358,1.299588,0.7460191,0.6910769,0.22204952,1.3110695,-3.510948
2026-05-10 11:31:18.900,359,1.2179979,0.6041816,0.75461715,1.042747,1.0545062,-3.1488576
2026-05-10 11:31:18.910,360,1.2179979,0.6041816,0.75461715,1.042747,1.0545062,-3.1488576
2026-05-10 11:31:18.920,361,1.2179979,0.6041816,0.75461715,1.6067283,0.95646226,-3.1497738
2026-05-10 11:31:18.930,362,1.16336059,0.49874861249999997,0.6723257874999999,2.0273854,0.943634105,-3.246977775
2026-05-10 11:31:18.940,363,0.9759106599999999,0.27702835,0.44215995,2.64749,0.9405798,-3.4025195
2026-05-10 11:31:18.950,364,0.97591066,0.27702835,0.44215995,2.714761525,0.9355783375,-3.4167603
2026-05-10 11:31:18.960,365,0.9759106599999999,0.27702835,0.44215995,2.9165761,0.92057395,-3.4594827
2026-05-10 11:31:18.970,366,0.83532319,0.2103019075,0.3074264925,2.9165761,0.92057395,-3.4594827
2026-05-10 11:31:18.980,367,0.5728993,0.07219934,0.033477563,2.9165761,0.92057395,-3.4594827
2026-05-10 11:31:18.990,368,0.5728993,0.07219934,0.033477563,3.0487520249999998,0.66672125,-3.43470445
2026-05-10 11:31:19.000,369,0.4531362,-0.045185562,-0.07341892,2.9035952,0.1797471,-3.4287865
2026-05-10 11:31:19.010,370,0.4531362,-0.045185562,-0.07341892,2.9035952,0.1797471,-3.4287865
2026-05-10 11:31:19.020,371,0.45313620000000004,-0.04518556199999999,-0.07341892,2.9035952,0.17974710000000002,-3.4287864999999997
2026-05-10 11:31:19.030,372,0.4531362,-0.045185562,-0.07341892,2.9035952,0.1797471,-3.4287865
2026-05-10 11:31:19.040,373,0.4531362,-0.045185562,-0.07341892,2.9035952,0.1797471,-3.4287865
2026-05-10 11:31:19.050,374,0.4531362,-0.045185562,-0.07341892,2.9035952,0.1797471,-3.4287865
2026-05-10 11:31:19.060,375,0.44790723499999996,-0.06372322899999999,-0.0779923575,2.84567755,0.17092773249999998,-3.444936275
2026-05-10 11:31:19.070,376,0.43222034,-0.11933623,-0.09171267,2.6719246,0.14446963,-3.4933856
2026-05-10 11:31:19.080,377,0.4242625625,-0.148011685,-0.12102840749999999,2.54948425,0.2678262325,-3.5267159
2026-05-10 11:31:19.090,378,0.42160997,-0.15757017,-0.13080032,2.5086708,0.3089451,-3.537826
2026-05-10 11:31:19.100,379,0.25507587,-0.22342768,-0.26800343,2.0297525,0.8210029,-3.573409
2026-05-10 11:31:19.110,380,0.2281992975,-0.2126191175,-0.251767735,1.518343775,1.0469085,-3.462002475
2026-05-10 11:31:19.120,381,0.2187322766666667,-0.21844770333333333,-0.15744822,0.79366668,1.1142691333333332,-3.2568790333333335
2026-05-10 11:31:19.130,382,0.22842796,-0.22080556,-0.13031249,0.69989884,0.9558514,-3.1931453
2026-05-10 11:31:19.140,383,0.22842796,-0.22080556,-0.13031249,0.69989884,0.9558514,-3.1931453
2026-05-10 11:31:19.150,384,0.2706865,-0.22989148,-0.038172957,0.68371093,0.65377855,-3.1483996
2026-05-10 11:31:19.160,385,0.2706865,-0.22989148,-0.038172957,0.68371093,0.65377855,-3.1483996
2026-05-10 11:31:19.170,386,0.2706865,-0.22989148,-0.038172957,0.68371093,0.65377855,-3.1483996
2026-05-10 11:31:19.180,387,0.2507768075,-0.250898795,-0.02661740525,0.6909649475,0.640072255,-3.1641293249999998
2026-05-10 11:31:19.190,388,0.1029633235,-0.25166100999999996,-0.0018598644999999999,0.6295729800000001,0.650189685,-3.06471085
2026-05-10 11:31:19.200,389,0.011789305666666666,-0.15273248,-0.015752951333333334,0.51271956,0.7250461333333332,-2.864041633333333
2026-05-10 11:31:19.210,390,0.005610083,-0.07939488,-0.023720896,0.23945917,0.9682214,-2.499508
2026-05-10 11:31:19.220,391,-0.046801513749999996,-0.03087070425,-0.006250364635,0.23945917,0.9682214,-2.499508
2026-05-10 11:31:19.230,392,-0.064272046,-0.014695979,-0.00042685418,0.23945917,0.9682214,-2.499508
2026-05-10 11:31:19.240,393,-0.087733774,0.022303129750000004,-0.00042685418,0.25247823999999996,1.06000394,-2.318233525
2026-05-10 11:31:19.250,394,-0.3012167633333333,0.10581918866666666,0.023598935273333333,0.5648976133333333,0.74332122,-2.2411118
2026-05-10 11:31:19.260,395,-0.40404797,0.1414107,0.03561183,0.64965516,0.6389651,-2.2154555
2026-05-10 11:31:19.270,396,-0.5465563,0.3096522,-0.005366167,0.64965516,0.6389651,-2.2154555
2026-05-10 11:31:19.280,397,-0.5465563,0.3096522,-0.005366167,0.8060366800000001,0.303141905,-2.06212835
2026-05-10 11:31:19.290,398,-0.5465563,0.3096522,-0.005366167000000001,0.9624182,-0.03268129,-1.9088012
2026-05-10 11:31:19.300,399,-0.5465563,0.3096522,-0.005366167,0.9624182,-0.03268129,-1.9088012
2026-05-10 11:31:19.310,400,-0.67955185,0.3514991625,-0.10986921925000001,0.949933625,-0.7759133725,-0.70524392
2026-05-10 11:31:19.320,401,-0.7238837,0.36544815,-0.14470357,0.9457721,-1.0236574,-0.30405816
2026-05-10 11:31:19.330,402,-0.6871945666666667,0.34532502333333337,-0.11086013,0.7796676666666666,-0.8934922133333334,0.06760243999999999
2026-05-10 11:31:19.340,403,-0.6505054333333333,0.32520189666666666,-0.07701669,0.6135632333333334,-0.7633270266666667,0.43926304
2026-05-10 11:31:19.350,404,-0.6138163,0.30507877,-0.04317325,0.4474588,-0.63316184,0.81092364
2026-05-10 11:31:19.360,405,-0.6138163,0.30507877,-0.04317325,0.4474588,-0.63316184,0.81092364
2026-05-10 11:31:19.370,406,-0.6138163,0.30507877,-0.04317325,0.4474588,-0.63316184,0.81092364
2026-05-10 11:31:19.380,407,-0.6138163,0.30507877,-0.04317325,0.4474588,-0.63316184,0.81092364
2026-05-10 11:31:19.390,408,-0.50063896,0.16653411,0.0017074167,0.23671028,-0.13576481,1.396438
2026-05-10 11:31:19.400,409,-0.50063896,0.16653411,0.0017074167,0.23671028,-0.13576481,1.396438
2026-05-10 11:31:19.410,410,-0.45554488,0.05302138725,-0.0013110520499999999,0.23671028,-0.13576481,1.396438
2026-05-10 11:31:19.420,411,-0.43427839749999997,-0.0070278502499999985,-0.002972734375,0.1531744575,0.04795291499999999,1.742493125
2026-05-10 11:31:19.430,412,-0.03280679666666667,-0.19708467333333335,-0.06459726553333334,-0.8376489833333333,0.60490931,3.9665006999999997
2026-05-10 11:31:19.440,413,0.75065356,-0.32410428,-0.14653294,-2.344959,1.3677273,6.069557
2026-05-10 11:31:19.450,414,0.75065356,-0.32410428,-0.14653294,-2.344959,1.3677273,6.069557
2026-05-10 11:31:19.460,415,0.8691512650000001,-0.327259965,-0.1106314525,-2.344959,1.3677273,6.069557
2026-05-10 11:31:19.470,416,0.9086504999999999,-0.32831186,-0.09866429,-2.7782152,1.0902418,6.180124
2026-05-10 11:31:19.480,417,1.5390532,-0.13147108,0.094212815,-2.6170995,0.49037206,5.9773164
2026-05-10 11:31:19.490,418,1.564633975,-0.10842095599999999,0.100707095,-2.6170995,0.49037206,5.9773164
2026-05-10 11:31:19.500,419,1.6413763,-0.039270584,0.120189935,-2.5640687250000003,0.391373715,5.9179098
2026-05-10 11:31:19.510,420,1.5567981999999998,0.051527393000000005,0.0616804258,-2.2156082,-0.202120035,5.440824
2026-05-10 11:31:19.520,421,1.4722201000000001,0.14232537,0.0031709166,-2.02624,-0.49861875000000005,5.141958
2026-05-10 11:31:19.530,422,1.4722201,0.14232537,0.0031709166,-2.02624,-0.49861875,5.141958
2026-05-10 11:31:19.540,423,1.4722201,0.14232537,0.0031709166,-2.029676125,-0.5332853625,5.093394249999999
2026-05-10 11:31:19.550,424,1.41520455,0.1644150725,-0.029742592550000002,-2.0399845,-0.6372852,4.947703
2026-05-10 11:31:19.560,425,1.2441579,0.23068418,-0.12848312,-2.2260947333333334,-0.5520694833333334,4.944444999999999
2026-05-10 11:31:19.570,426,0.963989175,0.2399682725,-0.2146466675,-2.5983152,-0.38163805,4.937929
2026-05-10 11:31:19.580,427,0.8705996,0.24306297,-0.24336785,-2.5983152,-0.38163805,4.937929
2026-05-10 11:31:19.590,428,0.8705996,0.24306297,-0.24336785,-2.5983152,-0.38163805,4.937929
2026-05-10 11:31:19.600,429,0.8705995999999999,0.24306297,-0.24336784999999997,-2.5983152,-0.38163805,4.937929
2026-05-10 11:31:19.610,430,0.8149560849999999,0.19232830499999998,-0.1244279875,-2.88862895,-0.13515393,5.04597585
2026-05-10 11:31:19.620,431,0.75931257,0.14159364,-0.005488125,-3.1789427,0.11133019,5.1540227
2026-05-10 11:31:19.630,432,0.75931257,0.14159364,-0.005488125,-3.1568752499999997,0.14530957,5.2105276499999995
2026-05-10 11:31:19.640,433,1.5812508,0.4966753,1.1321392,-0.041895133333333355,-1.0116437766666666,4.985322133333333
2026-05-10 11:31:19.650,434,1.7880311,1.043490775,0.24409962849999997,2.301816525,-1.98859545,3.880139775
2026-05-10 11:31:19.660,435,1.5400898,1.21229635,-0.30268534649999995,2.6878833749999997,-2.236415825,3.20001765
2026-05-10 11:31:19.670,436,0.9808499,1.3795927,-1.1278707,2.0555616,-2.1143955,2.048154725
2026-05-10 11:31:19.680,437,0.9808499,1.3795927,-1.1278707,0.5647449,-1.2463179,2.0809124
2026-05-10 11:31:19.690,438,0.9808499,1.3795927,-1.1278707,0.5647449,-1.2463179,2.0809124
2026-05-10 11:31:19.700,439,0.9808499,1.3795927,-1.1278707,0.5647449,-1.2463179,2.0809124
2026-05-10 11:31:19.710,440,0.9808499,1.3795927,-1.1278707,0.5647449,-1.2463179,2.0809124
2026-05-10 11:31:19.720,441,1.0586440750000001,1.374150325,-0.9493999074999999,-0.8917105,-0.22250767,1.9853121
2026-05-10 11:31:19.730,442,1.3172109666666667,1.3565222666666665,-0.31757949700000004,-1.8744399666666667,0.30624711,1.2651019833333332
2026-05-10 11:31:19.740,443,1.46042055,1.4144423,-0.0067991775,-2.26676825,0.0006108800000000081,0.28916835
2026-05-10 11:31:19.750,444,1.34759385,1.492556575,0.008765756,-2.13818115,-0.753578635,-0.290466435
2026-05-10 11:31:19.760,445,1.3095276,1.507405,0.009146876,-2.126422,-0.8866709,-0.38026363
2026-05-10 11:31:19.770,446,1.2933071666666667,1.5477529,0.04797028066666666,-2.126422,-0.8866709,-0.38026363
2026-05-10 11:31:19.780,447,1.2608663,1.6284487,0.12561709,-2.126422,-0.8866709,-0.38026363
2026-05-10 11:31:19.790,448,1.2608663,1.6284487,0.12561709,-2.2065979749999998,-1.15526075,-0.35460727
2026-05-10 11:31:19.800,449,1.2608663,1.6284487,0.12561709,-2.2333233,-1.2447907,-0.34605515
2026-05-10 11:31:19.810,450,1.4175828,1.7482728,0.2906267,-2.313194,-1.2096659,-0.23197608
2026-05-10 11:31:19.820,451,1.5370206333333334,1.7874214000000002,0.33453170000000004,-2.313194,-1.2096659,-0.23197608
2026-05-10 11:31:19.830,452,1.9868233000000002,1.9193498,0.45764865,-2.228474625,-0.796148315,-0.268322565
2026-05-10 11:31:19.840,453,2.269553275,1.9983026000000002,0.51493859,-2.062548325,-0.5423719874999999,-0.4255058325
2026-05-10 11:31:19.850,454,2.59707235,2.1284779499999997,0.61515783,-1.58794415,-0.583987175,-0.945924835
2026-05-10 11:31:19.860,455,2.71863425,2.17860285,0.6691853999999999,-1.382388,-0.65836,-1.1675162
2026-05-10 11:31:19.870,456,2.6961329,2.1444544666666663,0.6606483466666667,-1.02309744,-0.6223698666666667,-1.5330681333333331
2026-05-10 11:31:19.880,457,2.6217382,2.019752,0.5089321,0.42416954075,-0.37457493,-2.7495427
2026-05-10 11:31:19.890,458,2.6066917,1.915294625,0.3866383975,0.77106466,-0.35361462,-3.00370075
2026-05-10 11:31:19.900,459,2.6016762,1.8804755,0.34587383,0.8359691000000001,-0.35277468,-3.0572278
2026-05-10 11:31:19.910,460,2.6016762,1.8804755,0.34587383,0.8359691,-0.35277468,-3.0572278
2026-05-10 11:31:19.920,461,2.5843429,1.8542239999999999,0.3033713525,0.93569285,-0.35918877,-3.3334916
2026-05-10 11:31:19.930,462,2.16056815,1.47667145,-0.048539417774999996,0.81290895,-0.35216382,-3.5213327
2026-05-10 11:31:19.940,463,2.084146,1.4205706000000002,-0.064942814,0.8129089500000001,-0.35216382000000007,-3.5213327
2026-05-10 11:31:19.950,464,2.084146,1.4205706,-0.064942814,0.38728857,-0.16890424,-3.748269
2026-05-10 11:31:19.960,465,2.084146,1.4205706,-0.064942814,0.38728857,-0.16890424,-3.748269
2026-05-10 11:31:19.970,466,1.5661889,1.1425056,0.09439575,-0.16260469249999998,0.2713768775,-3.77048925
2026-05-10 11:31:19.980,467,1.5661889,1.1425056,0.09439575,-0.23808473,0.3390302,-3.7565157
2026-05-10 11:31:19.990,468,1.5661889,1.1425056,0.09439575,-0.23808473,0.3390302,-3.7565157
2026-05-10 11:31:20.000,469,1.309527575,0.9140167475000001,0.309149145,-0.07036403499999999,0.5319109125,-3.61483325
2026-05-10 11:31:20.010,470,0.8298045125,0.346925735,0.34136137499999997,1.404990075,0.73143475,-3.6703075
2026-05-10 11:31:20.020,471,0.78925335,0.29995653,0.3178234,1.5830573,0.7128797,-3.7041342
2026-05-10 11:31:20.030,472,0.78925335,0.29995653,0.3178234,1.5830573,0.7128796999999999,-3.7041342
2026-05-10 11:31:20.040,473,0.6467145675,0.2256229175,0.253170255,1.79708915,0.634459925,-3.730706775
2026-05-10 11:31:20.050,474,0.291145035,0.09662149,-0.111195515,2.1280635500000002,0.3999640175,-3.32887195
2026-05-10 11:31:20.060,475,0.33569032,0.0687845,-0.15781409,2.0045543,0.3932445,-3.1635184
2026-05-10 11:31:20.070,476,0.34532502333333337,0.04754342366666667,-0.1667577,1.9406170666666667,0.41783182333333335,-3.1391347
2026-05-10 11:31:20.080,477,0.36459443,0.005061271,-0.18464492,1.8127426,0.46700647,-3.0903673
2026-05-10 11:31:20.090,478,0.37869588249999997,-0.025977127,-0.2225434725,1.617112975,0.5919665875,-3.057495025
2026-05-10 11:31:20.100,479,0.3733754466666667,-0.09211919666666667,-0.24184338000000002,1.3067934333333333,0.7564547733333334,-3.0639472666666667
2026-05-10 11:31:20.110,480,0.35056922,-0.13427612,-0.22842796,0.8165741,1.0021244,-3.0987666
2026-05-10 11:31:20.120,481,0.35056922,-0.13427612,-0.22842796,0.8165741,1.0021244,-3.0987666
2026-05-10 11:31:20.130,482,0.25978649,-0.2175126875,-0.19065136,0.507743555,1.08230045,-3.094643375
2026-05-10 11:31:20.140,483,0.19123067,-0.262179925,-0.17729693,0.26160303500000004,1.05511695,-3.03057885
2026-05-10 11:31:20.150,484,0.14635001333333333,-0.3162176333333333,-0.14324007333333333,-0.05426519333333333,0.642223,-2.6816475333333334
2026-05-10 11:31:20.160,485,0.1352518,-0.339227115,-0.11982407,-0.15821409,0.5371033,-2.5627325
2026-05-10 11:31:20.170,486,0.08939546,-0.35538658,-0.1214705,-0.382019865,0.75808378,-2.4057401
2026-05-10 11:31:20.180,487,0.042746396666666665,-0.31270116333333337,-0.07512633333333334,-0.5798638466666667,1.1288280666666666,-2.3285674666666667
2026-05-10 11:31:20.190,488,-0.05055173,-0.22733033,0.017562,-0.702495025,1.94327685,-2.283414225
2026-05-10 11:31:20.200,489,-0.2010178325,-0.161152685,0.0145892655,-0.49487721500000004,2.0064632,-2.2111795
2026-05-10 11:31:20.210,490,-0.425283945,-0.0205042425,-0.0368009275,-0.37003163,1.9057468,-2.150704
2026-05-10 11:31:20.220,491,-0.73421967,0.2618597875,-0.1420967025,0.0642172105,0.8999953749999999,-1.5912658
2026-05-10 11:31:20.230,492,-0.7419945,0.3392880999999999,-0.11708001,0.21013764999999998,0.5317582,-1.3570372
2026-05-10 11:31:20.240,493,-0.72961575,0.38450415,-0.09134679500000001,0.300851125,0.367053655,-1.2440270999999998
2026-05-10 11:31:20.250,494,-0.6166671,0.447190715,-0.039956597499999996,0.761519875,0.002138028499999998,-0.5698609
2026-05-10 11:31:20.260,495,-0.5859793249999999,0.43837924500000003,-0.07787039625,0.905455,0.021838432,-0.2875648
2026-05-10 11:31:20.270,496,-0.5869245,0.43350092,-0.093359105,0.905455,0.021838432,-0.2875648
2026-05-10 11:31:20.280,497,-0.6798567,0.3958158,-0.20287769,0.80970186,0.34376442,0.02107485
2026-05-10 11:31:20.290,498,-0.6798567,0.3958158,-0.20287769,0.80970186,0.34376442,0.02107485
2026-05-10 11:31:20.300,499,-0.7551660149999999,0.386211565,-0.22900727,0.80970186,0.34376442,0.02107485
2026-05-10 11:31:20.310,500,-0.8827954433333334,0.35034564333333335,-0.27619497,0.38209620000000005,0.39935315,0.9763154000000002
2026-05-10 11:31:20.320,501,-0.8906921999999999,0.3220005,-0.277180805,0.3820962,0.39935315,0.9763154
2026-05-10 11:31:20.330,502,-0.8407502375,0.2996363875,-0.2426970975,0.102129027,0.2733240135,1.5851189250000002
2026-05-10 11:31:20.340,503,-0.74571425,0.27818695,-0.16787565,-0.36651915,0.063988134,2.6062565
2026-05-10 11:31:20.350,504,-0.7457142500000001,0.27818695,-0.16787564999999996,-0.36651915,0.063988134,2.6062565
2026-05-10 11:31:20.360,505,-0.74571425,0.27818695,-0.16787565,-0.6217081,0.004276057,3.2241468
2026-05-10 11:31:20.370,506,-0.74571425,0.27818695,-0.16787565,-0.6217081,0.004276057,3.2241468
2026-05-10 11:31:20.380,507,-0.6214387,0.24050182,-0.0910419,-0.6217081,0.004276057,3.2241468
2026-05-10 11:31:20.390,508,-0.333738986,0.116439712,0.023934325,-0.781983885,0.1183551435,3.7684279
2026-05-10 11:31:20.400,509,-0.046039272,-0.007622396,0.13891055,-0.94225967,0.23243423,4.312709
2026-05-10 11:31:20.410,510,0.143849862,-0.093465824,0.172662515,-0.9435959275,0.27958539,4.377918825
2026-05-10 11:31:20.420,511,0.45752668,-0.25672227,0.19867011999999998,-0.9100365,0.7837401,4.7198505
2026-05-10 11:31:20.430,512,0.508429045,-0.3112376775,0.195057115,-0.867543225,0.9635635499999999,4.746308625
2026-05-10 11:31:20.440,513,0.5253965,-0.32940948,0.19385278,-0.8533788,1.0235047,4.755128
2026-05-10 11:31:20.450,514,0.47935723,-0.36657627,0.16558893,-0.7881689199999999,1.0480157,4.8657708500000005
2026-05-10 11:31:20.460,515,0.43331796,-0.40374306,0.13732508,-0.72295904,1.0725267,4.9764137
2026-05-10 11:31:20.470,516,0.43331795999999995,-0.40374306,0.13732508,-0.5758423,0.7491753666666666,5.3824355
2026-05-10 11:31:20.480,517,0.43331796,-0.40374306,0.13732508,-0.50228393,0.5874997,5.5854464
2026-05-10 11:31:20.490,518,0.6939581925,-0.42708284750000003,0.065384916,-0.2516001235,-0.12450197249999999,6.300884
2026-05-10 11:31:20.500,519,0.9993266,-0.43161055,-0.058174126,-0.122020334,-0.5662721,6.785949
2026-05-10 11:31:20.510,520,0.9993266,-0.43161055,-0.058174126,-0.122020334,-0.5662721,6.785949
2026-05-10 11:31:20.520,521,1.4141068,-0.2711134,-0.31123766,-0.28695395700000004,-0.56344683,6.80771125
2026-05-10 11:31:20.530,522,1.4141068,-0.2711134,-0.31123766,-0.45188758,-0.56062156,6.8294735
2026-05-10 11:31:20.540,523,1.654669675,-0.0758276005,-0.40028249000000005,-1.0317132199999999,-0.28592310499999996,6.443521225
2026-05-10 11:31:20.550,524,1.7348573,-0.010732334000000001,-0.4299641,-1.8032742,0.08032878,5.8287234
2026-05-10 11:31:20.560,525,1.55778905,0.0420756245,-0.255136825,-1.9093357,0.09067531000000001,5.5130206
2026-05-10 11:31:20.570,526,1.0265843,0.2004995,0.269345,-2.116228175,0.03592651250000001,4.57003555
2026-05-10 11:31:20.580,527,0.9496692433333332,0.23899768333333335,0.3236571066666667,-1.7823521,-0.22143865,4.5824056
2026-05-10 11:31:20.590,528,1.2327412622222222,0.5226863222222222,0.19215214111111112,-1.4899003666666666,-0.4646139166666666,4.2040764
2026-05-10 11:31:20.600,529,1.5158132811111111,0.8063749611111111,0.060647175555555544,-1.1974486333333334,-0.7077891833333333,3.8257472
2026-05-10 11:31:20.610,530,1.7988853,1.0900636,-0.07085779,-0.9049969,-0.95096445,3.447418
2026-05-10 11:31:20.620,531,1.682903,1.2815381,0.027074749,-1.1432343,-0.8518516,2.7380507
2026-05-10 11:31:20.630,532,1.693554,1.3140603666666666,0.051690006000000004,-1.1432343,-0.8518516000000002,2.7380507
2026-05-10 11:31:20.640,533,1.714856,1.3791049,0.10092052,-1.1432343,-0.8518516,2.7380507
2026-05-10 11:31:20.650,534,1.8071177,1.5030146,0.07341892,-1.2609786,-0.82604253,2.255009
2026-05-10 11:31:20.660,535,1.8615263,1.54449565,-0.10407619000000001,-1.895438475,-0.7171176075000001,1.225701075
2026-05-10 11:31:20.670,536,1.9003700499999998,1.4023835249999999,-0.19789264875,-3.7635406,-0.020845790000000003,0.19257526500000002
2026-05-10 11:31:20.680,537,1.7141244,1.5654572,1.0071319,-4.445826233333333,0.3684026466666667,0.09061167666666665
2026-05-10 11:31:20.690,538,1.7843114500000001,1.606130275,1.146118675,-4.4542766,0.41141775,0.1207986
2026-05-10 11:31:20.700,539,1.9948726,1.7281495,1.563079,-3.79832195,0.1027399002675,0.2921463
2026-05-10 11:31:20.710,540,1.9948726,1.7281495,1.563079,-3.5796704,-0.00015271631,0.3492622
2026-05-10 11:31:20.720,541,2.6632652,1.8623646,1.820289,-1.8971947,-0.6704246,0.6469063
2026-05-10 11:31:20.730,542,2.6632652,1.8623646,1.820289,-1.8971947,-0.6704246,0.6469063
2026-05-10 11:31:20.740,543,3.1517489666666667,2.0616243333333335,1.1096582393333334,-0.040317099999999995,-0.9768244333333334,-0.60037872
2026-05-10 11:31:20.750,544,3.0977265,1.955632475,-0.0600339905,0.39351176,-0.34628425,-2.701818875
2026-05-10 11:31:20.760,545,2.843763375,1.81650845,-0.08463908125,0.21044308,-0.1301143,-2.8302915
2026-05-10 11:31:20.770,546,2.6742415,1.5354555,0.049210187,-0.6611089,0.6033822,-3.2914946
2026-05-10 11:31:20.780,547,2.5446403666666666,1.4080495666666666,0.147671209,-0.6805548066666667,0.48640146666666667,-3.5067228666666668
2026-05-10 11:31:20.790,548,2.4798398,1.3443466,0.19690172,-0.69027776,0.4279111,-3.614337
2026-05-10 11:31:20.800,549,2.4798398,1.3443466,0.19690172,-0.69027776,0.4279111,-3.614337
2026-05-10 11:31:20.810,550,2.0624984,1.17948945,0.27925408500000004,-0.56764652,0.198531205,-3.9166389
2026-05-10 11:31:20.820,551,1.645157,1.0146323,0.36160645,-0.5216789,0.17989981,-3.976122
2026-05-10 11:31:20.830,552,1.5361872333333333,0.9527181499999999,0.37237944333333334,-0.5216789,0.17989981,-3.976122
2026-05-10 11:31:20.840,553,1.3182477,0.82888985,0.39392543,-0.5216789,0.17989981,-3.976122
2026-05-10 11:31:20.850,554,1.3182477,0.82888985,0.39392543,-0.5235114999999999,0.3154355425,-3.9372175
2026-05-10 11:31:20.860,555,1.3182477,0.82888985,0.3939254300000001,-0.5290093,0.72204274,-3.820504
2026-05-10 11:31:20.870,556,1.2172052,0.7591297,0.42154896,-0.5290093,0.72204274,-3.820504
2026-05-10 11:31:20.880,557,1.2172052,0.7591297,0.42154896,-0.38564686,1.1207468600000001,-3.725018025
2026-05-10 11:31:20.890,558,1.11299175,0.6514709425,0.472192175,-0.1651245025,1.373874125,-3.68328825
2026-05-10 11:31:20.900,559,1.0180472,0.54167795,0.5136275,0.13576481,1.4564555,-3.6949710000000002
2026-05-10 11:31:20.910,560,0.9858502,0.48490632,0.52112794,0.44974953,1.4503468,-3.7152824
2026-05-10 11:31:20.920,561,0.85572064,0.24891695,0.2950782,1.4173601,1.1417072,-3.9163333
2026-05-10 11:31:20.930,562,0.8280056125,0.2133356075,0.255197825,1.8613064499999998,0.9061422499999999,-4.09791315
2026-05-10 11:31:20.940,563,0.74486053,0.10659158,0.1355567,2.0421226,0.8006916,-4.1891613
2026-05-10 11:31:20.950,564,0.74486053,0.10659158,0.1355567,2.15299465,0.7414758525,-4.27781295
2026-05-10 11:31:20.960,565,0.581863225,-0.074455565,-0.011403102000000002,2.22293865,0.7128033675000001,-4.361654124999999
2026-05-10 11:31:20.970,566,0.31593305,-0.3199577,-0.17305888,2.1166481,0.80634215,-4.3723445
2026-05-10 11:31:20.980,567,0.31593305,-0.3199577,-0.17305888,2.0715969,0.8321511999999999,-4.360967
2026-05-10 11:31:20.990,568,0.18398938999999997,-0.40790489750000003,-0.2293121575,1.8666896999999998,0.87842425,-4.24654445
2026-05-10 11:31:21.000,569,0.14000817,-0.43722063,-0.24806325,1.7983873,0.8938486,-4.2084036
2026-05-10 11:31:21.010,570,0.072077377,-0.47139946,-0.254557515,1.756848475,0.8823185124999999,-4.1684301
2026-05-10 11:31:21.020,571,0.049759,-0.47295445,-0.24806325000000004,1.632232,0.84772825,-4.0485096
2026-05-10 11:31:21.030,572,0.13926117,-0.4680761025,-0.2375900775,1.453973875,0.7505243275,-3.8405861999999997
2026-05-10 11:31:21.040,573,0.32879966,-0.46460027,-0.2245253,1.184887725,0.67340259,-3.5587482
2026-05-10 11:31:21.050,574,0.3766073266666667,-0.46836065666666665,-0.21493124333333333,0.81199265,0.73426,-3.5106425
2026-05-10 11:31:21.060,575,0.464539285,-0.4877418825,-0.196169985,0.7582746775,0.7590382250000001,-3.5591299249999997
2026-05-10 11:31:21.070,576,0.398315905,-0.5277137199999999,-0.20397532000000002,0.59712076,0.8333729,-3.7045922
2026-05-10 11:31:21.080,577,0.35514265,-0.5321042,-0.21050009,0.59712076,0.8333729,-3.7045922
2026-05-10 11:31:21.090,578,0.253642835,-0.50820038,-0.218610325,0.59712076,0.8333729,-3.7045922
2026-05-10 11:31:21.100,579,0.15214302,-0.48429656,-0.22672056,0.51638474,0.7889833666666667,-3.725158066666667
2026-05-10 11:31:21.110,580,-0.170802652,-0.26867421999999996,-0.0969568755,0.39187004999999997,0.67523518,-3.64090955
2026-05-10 11:31:21.120,581,-0.3565452,-0.12348281,0.004451479,0.38408152500000003,0.61376688,-3.3044755500000003
2026-05-10 11:31:21.130,582,-0.3959987333333333,-0.05622279,0.033518214666666664,0.4604396800000001,0.643852,-3.062573
2026-05-10 11:31:21.140,583,-0.4749058,0.07829725,0.091651686,0.46043968,0.643852,-3.062573
2026-05-10 11:31:21.150,584,-0.5282930299999999,0.3556152375,0.0614974905,0.80546397,0.35346190499999997,-2.6179393749999997
2026-05-10 11:31:21.160,585,-0.53399456,0.5425316,0.011829958,1.10856765,0.048334713,-2.1819343
2026-05-10 11:31:21.170,586,-0.53399456,0.5425316,0.011829958,1.2044735,-0.058948494,-2.008525
2026-05-10 11:31:21.180,587,-0.53399456,0.5425316,0.011829958,1.2044735,-0.058948494,-2.008525
2026-05-10 11:31:21.190,588,-0.418683,0.63741523,-0.09262736,1.3391694,-0.3680463,-1.820073
2026-05-10 11:31:21.200,589,-0.55289815,0.682356875,-0.29675512000000004,1.1385001,-0.9191995,-1.6578119
2026-05-10 11:31:21.210,590,-1.02509025,0.44885242000000003,-0.16889705500000002,-1.46649655,-0.11869875499999999,0.090637125
2026-05-10 11:31:21.220,591,-1.1979967,0.22580586,0.21964696000000003,-1.9414824,0.9246973,1.7692184
2026-05-10 11:31:21.230,592,-1.042423625,-0.134626757075,0.7177247875,-1.482760825,0.83001315,2.6072492
2026-05-10 11:31:21.240,593,-0.566801345,-0.2961910525,0.617657985,-0.24736225,0.39626061825000003,4.28609785
2026-05-10 11:31:21.250,594,0.27960473750000003,-0.38180580750000004,0.139672781,1.027246275,-0.46513571675,5.567273125
2026-05-10 11:31:21.260,595,0.9977106,-0.34431888,-0.423591775,0.7906123349999999,-0.942221475,5.448917875
2026-05-10 11:31:21.270,596,0.9179803666666667,-0.3550816966666666,-0.41258502666666663,0.20397808000000003,-0.44114653333333337,5.620265799999999
2026-05-10 11:31:21.280,597,0.795244575,-0.3650060475,-0.3268026025,-0.59479183,0.59608995,6.011639375
2026-05-10 11:31:21.290,598,0.7563246,-0.3468495,-0.25897855,-1.1838568,1.4524848,6.3391013
2026-05-10 11:31:21.300,599,0.7563246,-0.3468495,-0.25897855,-1.1838568,1.4524848,6.3391013
2026-05-10 11:31:21.310,600,0.8219991799999999,-0.27620514,-0.15133505749999998,-1.447407025,1.73814075,6.457876325
2026-05-10 11:31:21.320,601,0.88218564,-0.2376968,-0.07323598,-1.9536617,2.172847725,6.62082455
2026-05-10 11:31:21.330,602,0.88218564,-0.2376968,-0.07323598,-2.0931299,2.2860105,6.6619434
2026-05-10 11:31:21.340,603,0.88218564,-0.2376968,-0.07323598,-2.0931299,2.2860105,6.6619434
2026-05-10 11:31:21.350,604,1.0188196133333334,-0.19078349333333333,-0.09592022666666666,-2.291661,2.2391264,6.588639699999999
2026-05-10 11:31:21.360,605,1.03112723,0.06576602,0.12220226000000001,-1.7218763999999998,0.20128009999999996,5.0455941
2026-05-10 11:31:21.370,606,0.5815278275,0.3547005725,0.4086976275,-0.08586475000000002,-1.453897525,3.993264175
2026-05-10 11:31:21.380,607,0.9687760500000001,0.5930224,0.06713806,0.30909783,-0.40408735999999995,4.4443502
2026-05-10 11:31:21.390,608,1.174214875,0.74449465,-0.0737848,0.23587035475,-0.3563635125,4.35184225
2026-05-10 11:31:21.400,609,1.3796537,0.8959669,-0.21470766,0.016187929,-0.21319197,4.0743184
2026-05-10 11:31:21.410,610,1.7667494,1.3327607,-0.38776654000000005,0.016187929,-0.21319197,4.0743184
2026-05-10 11:31:21.420,611,1.7667494,1.3327607,-0.38776654,-0.48181996,-0.37094793,3.5584428
2026-05-10 11:31:21.430,612,1.7667494,1.3327607,-0.38776654,-0.48181996,-0.37094793,3.5584428
2026-05-10 11:31:21.440,613,1.7667494,1.3327607,-0.38776654000000005,-0.48181996,-0.37094793,3.5584428
2026-05-10 11:31:21.450,614,2.27741945,1.699093,-0.34873987,-0.7872526,-0.61437774,3.1902437
2026-05-10 11:31:21.460,615,2.5139272,1.8345582,-0.3109328,-1.18756015,-1.07126676,2.408068925
2026-05-10 11:31:21.470,616,2.51389675,1.844284375,-0.30530746750000004,-1.320996,-1.2235631,2.147344
2026-05-10 11:31:21.480,617,2.43809975,1.8808719250000001,-0.25426789,-1.97508005,-1.034729335,1.3134366
2026-05-10 11:31:21.490,618,2.1525646666666667,1.9924943333333334,0.041038976666666664,-2.9960395666666666,0.16126842,1.0653489666666667
2026-05-10 11:31:21.500,619,2.1233556,2.037192,0.13744704,-3.3134859,0.9059132,1.2064588
2026-05-10 11:31:21.510,620,2.69064485,2.13593255,0.37694274,-3.003700825,0.6526331875,0.8989263425
2026-05-10 11:31:21.520,621,3.6330932249999996,2.0783834,0.5777319249999999,-1.7109571749999999,-0.2499966,-0.9442449575
2026-05-10 11:31:21.530,622,3.0318436666666666,1.8123821666666666,0.6052385666666668,-1.3163637,-0.012013683333333322,-1.9743164666666668
2026-05-10 11:31:21.540,623,2.6810102,1.6383883,0.7179687,-1.0361801,0.35002577,-2.2024746
2026-05-10 11:31:21.550,624,2.713390025,1.561280125,0.657279225,-1.0361801,0.35002577,-2.2024746
2026-05-10 11:31:21.560,625,2.739489075,1.5064446249999999,0.619258725,-0.89606292,0.302378295,-2.2423335499999997
2026-05-10 11:31:21.570,626,2.7854064,1.4190463,0.5658867,-0.5897903999999999,0.18957184666666668,-2.4476352333333335
2026-05-10 11:31:21.580,627,2.7854064,1.4190463,0.5658867,-0.50671273,0.15699236,-2.5303566
2026-05-10 11:31:21.590,628,2.772859975,1.3884195,0.561252275,-0.50671273,0.15699236,-2.5303566
2026-05-10 11:31:21.600,629,2.7352207,1.2965391,0.547349,-0.3642284,0.26740626,-2.928946
2026-05-10 11:31:21.610,630,2.7352207,1.2965391,0.547349,-0.3642284,0.26740626,-2.928946
2026-05-10 11:31:21.620,631,2.6495449,1.2355396,0.5470034433333333,-0.3642284,0.26740626,-2.928946
2026-05-10 11:31:21.630,632,2.140734625,0.942387325,0.5819851575,-0.1555415625,0.787443515,-3.38316265
2026-05-10 11:31:21.640,633,1.49629165,0.621545475,0.37017404,0.37121516499999996,1.01659424,-3.5673385
2026-05-10 11:31:21.650,634,1.349347,0.5527152,0.30367625,0.7506007,0.7254025,-3.7120755
2026-05-10 11:31:21.660,635,0.9110897666666666,0.39675078666666663,0.22964754666666667,0.9623672666666666,0.6761260033333333,-3.7593665
2026-05-10 11:31:21.670,636,0.623527225,0.2595273375,0.09175840575000001,1.24005645,0.51793736,-3.5505397
2026-05-10 11:31:21.680,637,0.5763141,0.20989029,-0.016281437,1.3374895,0.41798455,-3.4634533
2026-05-10 11:31:21.690,638,0.540290675,0.148911122,-0.13659333925,1.1236866349999999,0.28477774,-3.472272575
2026-05-10 11:31:21.700,639,0.5055783,0.110860124,-0.20037755,0.93874717,0.24113905,-3.4814737
2026-05-10 11:31:21.710,640,0.51533496,0.08774903,-0.18629137,0.64934975,0.49861875,-3.4161112
2026-05-10 11:31:21.720,641,0.63125634,-0.018171793,-0.0717115,0.3996586,0.9071349,-3.396869
2026-05-10 11:31:21.730,642,0.47187204,-0.17988853825,0.209509175,0.8898015675000001,1.3148874,-3.7126862000000003
2026-05-10 11:31:21.740,643,0.35258156,-0.21031716,0.18714507,2.13925,1.0768027,-3.812868
2026-05-10 11:31:21.750,644,0.35258156,-0.21031716,0.18714507,2.13925,1.0768027,-3.812868
2026-05-10 11:31:21.760,645,0.27812598499999996,-0.20423448,0.11058572250000001,2.13925,1.0768027,-3.812868
2026-05-10 11:31:21.770,646,0.21784807499999997,-0.20013363,0.067763101,2.3474023,1.0537425,-3.8024833
2026-05-10 11:31:21.780,647,0.11146992,-0.19391375999999996,0.015854584,2.3707171000000002,0.9857328666666666,-3.7861936333333333
2026-05-10 11:31:21.790,648,-0.05110054,-0.18586451,0.02494048,2.3904684,0.79229224,-3.6867244
2026-05-10 11:31:21.800,649,-0.24595949,-0.2114757525,0.11951917000000001,2.4288,0.72311175,-3.5263724
2026-05-10 11:31:21.810,650,-0.26550332,-0.21830542,0.13061738,2.49981315,0.717613935,-3.392822
2026-05-10 11:31:21.820,651,-0.289788265,-0.2204396925,0.132827875,2.5234842,0.71578133,-3.3483052
2026-05-10 11:31:21.830,652,-0.36264309999999994,-0.22684251,0.13945936,2.595871733333333,0.7094690533333333,-3.2724051333333333
2026-05-10 11:31:21.840,653,-0.3626431,-0.22684251,0.13945936,2.7406468,0.6968445,-3.120605
2026-05-10 11:31:21.850,654,-0.3626431,-0.22684251,0.13945936,2.7406468,0.6968445,-3.120605
2026-05-10 11:31:21.860,655,-0.3626431,-0.22684251,0.13945936,2.7406468,0.6968445,-3.120605
2026-05-10 11:31:21.870,656,-0.3626431,-0.22684251,0.13945936,2.7406468,0.6968445,-3.120605
2026-05-10 11:31:21.880,657,-0.7716304,-0.28471174,-0.028822816666666667,1.7310902099999999,0.32335131999999994,-2.0979148043333335
2026-05-10 11:31:21.890,658,-1.1806177,-0.34258097,-0.19710499333333334,0.7215336199999998,-0.050141860000000094,-1.0752246086666668
2026-05-10 11:31:21.900,659,-1.589605,-0.4004502,-0.36538717,-0.28802297,-0.42363504,-0.052534413
2026-05-10 11:31:21.910,660,-1.589605,-0.40045020000000003,-0.36538717,-0.57299159,-0.30736702666666665,0.23090706233333336
2026-05-10 11:31:21.920,661,-1.589605,-0.40045020000000003,-0.36538717,-0.7154759,-0.24923302,0.3726278
2026-05-10 11:31:21.930,662,-1.4309982,-0.6017424,-0.12817821,-2.497102725,0.58769057,2.8384234999999998
2026-05-10 11:31:21.940,663,-1.2746475,-0.7304085,0.024452647,-2.6568058,0.6719518,3.1372511
2026-05-10 11:31:21.950,664,-1.2746475,-0.7304084999999999,0.024452647000000004,-2.7583621,0.7424049166666666,3.4606024000000004
2026-05-10 11:31:21.960,665,-0.7088675999999999,-0.905388225,0.23803217425,-3.0415743500000003,0.927904305,4.678235
2026-05-10 11:31:21.970,666,-0.5202743,-0.9637148,0.30922535,-3.121674,0.97249746,5.249165
2026-05-10 11:31:21.980,667,-0.11157664249999999,-0.9481193324999999,0.2957946975,-3.156302475,0.92591899,6.0813162499999995
2026-05-10 11:31:21.990,668,0.7817834375,-0.8329296975,0.2128782725,-3.271603475,0.3710242775,7.380359325
2026-05-10 11:31:22.000,669,0.8735266,-0.8141938400000001,0.20562175000000002,-3.293022,0.24404067,7.508908299999999
2026-05-10 11:31:22.010,670,1.0272093500000001,-0.77791123,0.2091280525,-3.298290675,0.12232576749999999,7.536129975
2026-05-10 11:31:22.020,671,1.5867389,-0.63378695,0.24861208,-3.302871975,-0.5037347600000001,7.57026195
2026-05-10 11:31:22.030,672,1.7103639666666668,-0.57070402,0.30227375666666667,-3.2940398666666666,-0.6284785233333333,7.5182239
2026-05-10 11:31:22.040,673,1.80194965,-0.430253775,0.37393950750000005,-3.2838588,-0.70402217,7.4458365
2026-05-10 11:31:22.050,674,1.83227155,-0.390480115,0.38291868500000004,-3.321427,-0.47395506,7.362682550000001
2026-05-10 11:31:22.060,675,1.9405096,-0.2308061625,0.378436715,-3.39022575,0.011759155000000007,6.9627948
2026-05-10 11:31:22.070,676,2.0321918,-0.082626775,0.37239978,-3.396181725,0.22193497750000002,6.447377125
2026-05-10 11:31:22.080,677,1.8422213,0.17769329999999997,0.6027790333333334,-2.903544333333333,-0.216551721,5.4021868333333325
2026-05-10 11:31:22.090,678,1.6397299,0.27611366,0.7846189,-2.2652411,-0.69714993,4.794834
2026-05-10 11:31:22.100,679,1.1572627,0.54448295,0.86718476,-0.29046643,-2.1661282,4.5259004
2026-05-10 11:31:22.110,680,1.275760375,0.5808875375,0.746903315,-0.29046643,-2.1661282,4.5259004
2026-05-10 11:31:22.120,681,1.3152596,0.5930224,0.7068095,0.017562366666666662,-2.2349523333333337,4.541273933333334
2026-05-10 11:31:22.130,682,1.3152596,0.5930224,0.7068095,0.747355445,-2.31743185,4.54392125
2026-05-10 11:31:22.140,683,1.3152596,0.5930224,0.7068095,1.0885619,-2.1519256,4.459622
2026-05-10 11:31:22.150,684,1.3152596,0.5930224,0.7068095,1.0885619,-2.1519256,4.459622
2026-05-10 11:31:22.160,685,2.0939432666666664,1.1257973666666665,-0.07898834333333334,0.78877974,-1.2608259,3.0938797
2026-05-10 11:31:22.170,686,2.35032,1.3334924,-0.34697145,0.78877974,-1.2608259,3.0938797
2026-05-10 11:31:22.180,687,1.24690195,1.426638175,-0.27480261,-1.157589675,-0.294475225,1.64780905
2026-05-10 11:31:22.190,688,1.1969142750000001,1.423253825,-0.17751035325,-1.5884024,-0.0852157,1.4715744
2026-05-10 11:31:22.200,689,1.2672081,1.434413,-0.025306353,-2.013361,0.054570633333333333,1.6528995333333334
2026-05-10 11:31:22.210,690,2.05912935,1.66932005,-0.09273406775,-2.686547175,0.06559165675,1.6807957500000001
2026-05-10 11:31:22.220,691,2.7788207,1.9282832,0.43310456,-4.4864235,0.21197024,0.18906278999999998
2026-05-10 11:31:22.230,692,2.77659485,2.00001005,1.562423475,-3.920189625,0.5266803675,-0.46150868749999996
2026-05-10 11:31:22.240,693,2.8724847,2.046278,2.036765,-1.9040669,1.0358747,-1.0899363
2026-05-10 11:31:22.250,694,2.8582156,1.9331311,1.47286025,0.010613800000000007,0.588186855,-1.8195385000000002
2026-05-10 11:31:22.260,695,2.5908066499999998,1.633845325,0.258704125,1.83523005,0.1042670575,-3.087503775
2026-05-10 11:31:22.270,696,1.917368,1.2636104,0.14427671,0.733191,0.34956762,-3.7242928
2026-05-10 11:31:22.280,697,1.8319362,1.2291571000000001,0.163332705,0.7016169,0.35766159000000003,-3.7067304
2026-05-10 11:31:22.290,698,1.7465044,1.1947038,0.1823887,0.6068946,0.3819435,-3.6540432
2026-05-10 11:31:22.300,699,1.7465044,1.1947038,0.1823887,0.6068946,0.3819435,-3.6540432
2026-05-10 11:31:22.310,700,1.58766895,1.1053389,0.200499505,0.41187589,0.427223885,-3.489300425
2026-05-10 11:31:22.320,701,1.3691653,0.90694314,0.30129808,0.31795537,0.44608435,-3.4159583999999996
2026-05-10 11:31:22.330,702,1.3691653,0.90694314,0.30129808,0.3155882625,0.4564308825,-3.42164705
2026-05-10 11:31:22.340,703,1.3691653,0.90694314,0.30129808,0.30848694,0.48747048,-3.438713
2026-05-10 11:31:22.350,704,1.3691653,0.90694314,0.30129808,0.30848694,0.48747048,-3.438713
2026-05-10 11:31:22.360,705,1.355597425,0.8912867449999999,0.3162989525,0.30848694,0.48747048,-3.438713
2026-05-10 11:31:22.370,706,1.166683925,0.70437037,0.3958767575,0.558063595,0.5171356149999999,-3.58429
2026-05-10 11:31:22.380,707,0.50948094,0.07965404355,0.29262378,2.41936995,0.10945941425,-3.9988383499999998
2026-05-10 11:31:22.390,708,0.33715382,-0.09171267,0.0851879,2.7991374000000007,-0.11102476,-3.9284744000000003
2026-05-10 11:31:22.400,709,0.25156955999999997,-0.19488941999999998,-0.02426970917,2.5234081,0.10903944500000001,-3.8250091
2026-05-10 11:31:22.410,710,0.2067956125,-0.254115425,0.05329579158,2.00894495,0.6880251425,-3.6317084
2026-05-10 11:31:22.420,711,0.36725721,-0.24676235666666668,0.05695454133333333,1.9322685666666668,1.2236648666666667,-3.3709580666666668
2026-05-10 11:31:22.430,712,0.35056922,-0.25971028,0.027318668,2.1001546,0.9236283,-3.4539847
2026-05-10 11:31:22.440,713,0.35056922,-0.25971028,0.027318668,2.1001546,0.9236283,-3.4539847
2026-05-10 11:31:22.450,714,0.29749702666666666,-0.24930316666666666,0.04142518366666667,2.1001546,0.9236283,-3.4539847
2026-05-10 11:31:22.460,715,0.19135264,-0.22848894,0.069638215,2.286316,0.44700065,-3.5005634
2026-05-10 11:31:22.470,716,0.19135264,-0.22848894,0.069638215,2.3512585,0.26041949,-3.4641404
2026-05-10 11:31:22.480,717,0.09465491775,-0.223945995,0.05344824125,2.372906,0.19822577,-3.4519994
2026-05-10 11:31:22.490,718,-0.13863614225,-0.21344235,-0.040444433,2.28242165,0.07922158475,-3.15798245
2026-05-10 11:31:22.500,719,-0.2504007933333333,-0.22094786,-0.08205763666666667,2.2522602,0.039553523,-3.0599768
2026-05-10 11:31:22.510,720,-0.38310162999999997,-0.21251240500000002,-0.0942433075,2.0452532,0.1363756665,-2.7630961999999997
2026-05-10 11:31:22.520,721,-0.47874746,-0.19988972,-0.095066525,1.8382462,0.23319781,-2.4662156
2026-05-10 11:31:22.530,722,-0.5085357825,-0.187434725,-0.08639223675,1.791705925,0.2772564675,-2.2974641
2026-05-10 11:31:22.540,723,-0.59790075,-0.15006974,-0.060369372,1.6520851,0.40943244,-1.7912096
2026-05-10 11:31:22.550,724,-0.7111391,-0.13006857,-0.06512575,1.6520851,0.40943244,-1.7912096
2026-05-10 11:31:22.560,725,-0.868053725,-0.1137871275,-0.10226206,1.6552921,0.4662429,-1.52594135
2026-05-10 11:31:22.570,726,-1.0652452,-0.06933331,-0.13214186,1.700038,0.41126502,-1.157437
2026-05-10 11:31:22.580,727,-1.0082498933333335,-0.07738256333333333,-0.16462342666666666,1.7876972,-0.11112658000000002,-0.30945418
2026-05-10 11:31:22.590,728,-0.97975224,-0.08140719,-0.18086421,1.8315268,-0.37232238,0.11453723
2026-05-10 11:31:22.600,729,-0.9142606200000001,-0.020062147000000002,-0.23455637499999998,1.8315268,-0.37232238,0.11453723
2026-05-10 11:31:22.610,730,-0.848769,0.041282896,-0.28824854,1.8315268,-0.37232238,0.11453723
2026-05-10 11:31:22.620,731,-0.848769,0.041282896,-0.28824854,1.6491834,-0.581391,0.43157628
2026-05-10 11:31:22.630,732,-0.8506746075,0.047396057,-0.3156129425,1.6491834,-0.581391,0.43157628
2026-05-10 11:31:22.640,733,-0.8646693375,0.0582655925,-0.39801104249999997,1.2144000875,-0.5479843075,0.5207244475
2026-05-10 11:31:22.650,734,-0.88864946,-0.061467,-0.3305071,-0.19883664,-0.23044892,0.91767234
2026-05-10 11:31:22.660,735,-0.892155735,-0.1688818,-0.21579004,-0.53305628,-0.00874301500000002,1.378532005
2026-05-10 11:31:22.670,736,-0.90267456,-0.4911262,0.12836114,-1.5676838333333334,0.7313584133333334,3.0896037333333335
2026-05-10 11:31:22.680,737,-0.79730259,-0.567822745,0.1577683475,-1.6316211,0.88132584,3.7465892
2026-05-10 11:31:22.690,738,-0.675130845,-0.61139237,0.1435297125,-1.6785432,0.974711855,4.0129264749999995
2026-05-10 11:31:22.700,739,-0.32835249666666666,-0.6705879133333333,0.042360191666666665,-1.8861992666666667,1.3273083666666667,5.003291766666666
2026-05-10 11:31:22.710,740,-0.15708233,-0.68095434,-0.015732625,-2.5595635999999997,1.66346245,6.1813452
2026-05-10 11:31:22.720,741,0.46649066,-0.6932112,-0.2031826,-2.7394252,1.7272215,6.4464607
2026-05-10 11:31:22.730,742,1.0737212,-0.68433873,-0.19342592,-3.3368515,1.5000559500000001,6.946034225
2026-05-10 11:31:22.740,743,1.5071611,-0.6305449200000001,-0.07504503,-3.796629266666667,1.0763445999999999,6.998785099999999
2026-05-10 11:31:22.750,744,1.7762011,-0.17421748,0.31367683,-3.989675525,-0.036270127500000006,6.31901905
2026-05-10 11:31:22.760,745,1.562606375,-0.04988096,0.28381228999999997,-3.9637519,-0.1900554525,6.108614175
2026-05-10 11:31:22.770,746,1.2119152,0.015717380750000003,0.5097095925,-5.02547375,0.80523492,5.81929325
2026-05-10 11:31:22.780,747,1.449495166666667,0.10673387833333332,1.0018673333333332,-4.576755333333334,0.7647523866666667,5.418629133333333
2026-05-10 11:31:22.790,748,1.542712,0.15110639,1.2016554,-3.48903335,0.466853765,4.76558875
2026-05-10 11:31:22.800,749,1.5985688,0.3743511,1.6941842,-0.98563105,-0.21151209,3.6209037
2026-05-10 11:31:22.810,750,0.36282603,0.683332575,-0.10616473999999998,2.310254225,-1.601154175,3.0486375
2026-05-10 11:31:22.820,751,0.7648617,1.0226207,-1.1146382,1.4763086,-1.4245378000000002,3.6722164
2026-05-10 11:31:22.830,752,0.9735324249999999,1.0679587000000001,-1.1051559499999999,0.8818603500000001,-1.180306225,3.688366175
2026-05-10 11:31:22.840,753,1.5995446,1.2039727,-1.0767092,-0.9014844,-0.4476115,3.7368155
2026-05-10 11:31:22.850,754,1.8823965,1.2315048,-0.899991565,-1.6855299000000001,-0.05108360000000001,3.47307435
2026-05-10 11:31:22.860,755,2.476059025,1.327028675,-0.12583051499999998,-3.354490125,1.0001391,1.682551975
2026-05-10 11:31:22.870,756,2.3912371,1.4928716666666668,0.78181391,-3.6494617,1.2183707,1.1736249
2026-05-10 11:31:22.880,757,2.3043418,1.5402728,0.9313958,-3.2827135,1.01212735,0.8985064500000001
2026-05-10 11:31:22.890,758,2.3043418,1.5402728,0.9313958,-2.9159653,0.805884,0.623388
2026-05-10 11:31:22.900,759,2.1947012,1.6958916,1.0492076,-2.3750440999999998,0.499076915,0.60269493
2026-05-10 11:31:22.910,760,2.1947012,1.6958916,1.0492076,-1.1067351,-0.2680171,0.6589709
2026-05-10 11:31:22.920,761,2.248850733333333,1.7118681666666664,0.9811345166666666,-1.1067351,-0.2680171,0.6589709
2026-05-10 11:31:22.930,762,2.3571498,1.7438213,0.84498835,-1.1067351,-0.2680171,0.6589709
2026-05-10 11:31:22.940,763,2.6582649,1.9182216,0.55649585,-1.01151649,-0.3420081625,0.6733262250000001
2026-05-10 11:31:22.950,764,2.6582649,1.9182216,0.55649585,-0.72586066,-0.56398135,0.7163922
2026-05-10 11:31:22.960,765,2.7718233750000003,1.9778136000000002,0.5034440075,-0.72586066,-0.56398135,0.7163922
2026-05-10 11:31:22.970,766,3.4797761,2.0690231,0.40532854,-1.0170907,-0.28389964,0.21899518
2026-05-10 11:31:22.980,767,3.5672508499999998,2.04511925,0.46478323499999996,-1.1347204,-0.053794324750000004,-0.41508293
2026-05-10 11:31:22.990,768,3.623915775,2.00903485,0.5584015099999999,-1.1739303,0.022907447,-0.6264423
2026-05-10 11:31:23.000,769,3.4096093333333335,1.9341982333333334,0.6853042333333333,-1.0734429,0.17806722,-1.311375
2026-05-10 11:31:23.010,770,3.1658554,1.8576083,0.7341282,-0.6241516,0.15561792,-2.1149683
2026-05-10 11:31:23.020,771,2.7165608,1.6929647,0.515213,-0.009010263,0.18524489,-2.7046058
2026-05-10 11:31:23.030,772,2.6845468666666665,1.6746302666666668,0.43244393333333336,-0.04138612,0.25381451,-2.755562133333333
2026-05-10 11:31:23.040,773,2.620519,1.6379614,0.2669058,-0.27275133,0.52946746,-2.988811
2026-05-10 11:31:23.050,774,2.2633028,1.396057,0.34611776,-0.8184067,1.0273226,-3.4213035
2026-05-10 11:31:23.060,775,1.8387963,1.118296925,0.5554744925,-0.42737659,1.16965425,-3.56783485
2026-05-10 11:31:23.070,776,1.0763433,0.5528981,0.845964,0.72418076,1.2188289,-3.7157407
2026-05-10 11:31:23.080,777,1.05539696,0.5299242,0.8321827100000001,0.88739632,1.1834369,-3.712762725
2026-05-10 11:31:23.090,778,0.9683187125,0.41374365,0.7340215050000001,2.354503675,0.63361998,-3.766404175
2026-05-10 11:31:23.100,779,0.8785878575,0.13572438750000002,0.352093725,2.992819675,0.095065900875,-3.9635227
2026-05-10 11:31:23.110,780,0.8190925066666667,0.04587666133333334,0.21728909333333335,3.2305099,-0.2251547551666667,-4.1467062
2026-05-10 11:31:23.120,781,0.66642608,-0.04215184975,0.1276293913,3.2441525749999998,-0.35678349,-4.2491026
2026-05-10 11:31:23.130,782,0.3808149,-0.1905599,0.0018293751999999997,3.0801353,-0.42103887,-4.3473754
2026-05-10 11:31:23.140,783,0.3808149,-0.1905599,0.0018293752,2.7371345,-0.09728029,-4.189619
2026-05-10 11:31:23.150,784,0.3808149,-0.1905599,0.0018293752,2.7371345,-0.09728029,-4.189619
2026-05-10 11:31:23.160,785,0.3808149,-0.1905599,0.0018293752,2.7371345,-0.09728029,-4.189619
2026-05-10 11:31:23.170,786,0.3808149,-0.1905599,0.0018293752,2.7371345,-0.09728029,-4.189619
2026-05-10 11:31:23.180,787,0.3662612,-0.22328538666666664,-0.0168302516,2.7371345,-0.09728029,-4.189619
2026-05-10 11:31:23.190,788,0.35898435,-0.23964813,-0.026160065,2.5795312499999996,0.072845675,-4.123493
2026-05-10 11:31:23.200,789,0.35898435,-0.23964813,-0.026160065,2.421928,0.24297164000000002,-4.057367
2026-05-10 11:31:23.210,790,0.3665457725,-0.24708758749999998,-0.02724244475,2.140319,0.5477934,-3.9585595
2026-05-10 11:31:23.220,791,0.38923004,-0.26940596,-0.030489584,2.140319,0.5477934,-3.9585595
2026-05-10 11:31:23.230,792,0.4357368133333333,-0.2768860733333333,-0.025123417,1.9887735666666666,0.6567819333333333,-3.962428333333333
2026-05-10 11:31:23.240,793,0.529985195,-0.3036915,-0.01368982275,1.6856827,0.874759,-3.970166
2026-05-10 11:31:23.250,794,0.47460085,-0.34386152,0.0012805625,1.639027825,0.770377425,-4.11066485
2026-05-10 11:31:23.260,795,0.33369323500000003,-0.33302248999999995,0.00150923435,1.6969837,0.57650405,-4.128227
2026-05-10 11:31:23.270,796,0.26282020333333334,-0.33625947333333334,-0.00016261123333333343,1.6969836999999999,0.57650405,-4.128227
2026-05-10 11:31:23.280,797,0.16940012999999998,-0.366667745,0.0014939896,1.801517975,0.3168481555,-3.974441825
2026-05-10 11:31:23.290,798,0.057518600249999996,-0.3981482325,0.015473464874999999,1.953547,-0.022449298,-3.7586539
2026-05-10 11:31:23.300,799,-0.09677394,-0.4246589,0.00804925,2.019724066666667,-0.05533421,-3.5938221
2026-05-10 11:31:23.310,800,-0.4519775975,-0.2973496675,-0.037791841,2.42719665,0.16126843,-2.5286003
2026-05-10 11:31:23.320,801,-0.8482812150000001,-0.13702019,-0.261936015,2.9332986,-0.7194465250000001,-1.691944
2026-05-10 11:31:23.330,802,-0.86864823,-0.11823861,-0.31696972,2.9245174,-0.94959,-1.5567901
2026-05-10 11:31:23.340,803,-0.8796651366666667,-0.09650969799999999,-0.34292652,2.6526824,-1.1509719333333333,-1.3579534333333332
2026-05-10 11:31:23.350,804,-0.9070651125,-0.048783333,-0.3956938225,2.434718025,-1.2544118,-1.231198875
2026-05-10 11:31:23.360,805,-0.9579369999999999,-0.044392836250000005,-0.39051058,2.1885774,-1.2626585,-1.1491902
2026-05-10 11:31:23.370,806,-1.0622572,-0.069638215,-0.36727753,1.7909041499999998,-1.1859948999999999,-1.02304655
2026-05-10 11:31:23.380,807,-1.111569,-0.09850168666666666,-0.34985782,1.3932309,-1.1093313,-0.8969029000000001
2026-05-10 11:31:23.390,808,-1.2597687,-0.18680968,-0.28998643999999996,0.485866944,-0.67134091,-0.2959642165
2026-05-10 11:31:23.400,809,-1.3157323250000001,-0.2347088125,-0.2414165225,-0.3936262935,-0.15493069999999998,0.5639813585
2026-05-10 11:31:23.410,810,-1.2938153000000001,-0.3152826266666667,-0.13338176833333334,-0.9627745333333332,0.22255857333333337,1.3404928999999999
2026-05-10 11:31:23.420,811,-1.0117663,-0.43807435,0.034087352,-1.6204728,0.7475463,2.7646234
2026-05-10 11:31:23.430,812,-0.7436257,-0.4961570125,0.088694198,-1.702252375,0.83558725,3.10395905
2026-05-10 11:31:23.440,813,-0.40947512,-0.5687222249999999,0.1018657,-1.99462775,1.1101712,4.443357499999999
2026-05-10 11:31:23.450,814,0.4049016833333334,-0.5820868266666667,0.085269203,-2.0543907333333333,0.5105815286666667,5.8679716
2026-05-10 11:31:23.460,815,1.1538478374999999,-0.3934071,0.016921718475,-2.157767025,-0.0864374335,6.349829825
2026-05-10 11:31:23.470,816,1.29312425,-0.26705826499999996,0.0123177914,-2.6004534,0.20387627,6.114914
2026-05-10 11:31:23.480,817,1.2415968,-0.2406238,0.026525937,-2.8322768,0.42119157,5.917146
2026-05-10 11:31:23.490,818,1.2415968,-0.24062379999999997,0.026525937,-2.899472,0.46242498000000004,5.892456866666667
2026-05-10 11:31:23.500,819,1.176333825,-0.1762297975,0.06919610925,-3.0338624,0.5448918,5.8430786
2026-05-10 11:31:23.510,820,1.159610325,-0.1111650245,0.109838725,-3.0338624,0.5448918,5.8430786
2026-05-10 11:31:23.520,821,1.1747028,0.019635292,0.1890964,-3.0338624,0.5448918,5.8430786
2026-05-10 11:31:23.530,822,1.1747028,0.019635292,0.18909640000000003,-3.0345750333333332,0.4949535666666667,5.836919066666667
2026-05-10 11:31:23.540,823,1.36634505,0.118330083,0.28019928,-2.6279422500000003,-0.162871955,5.4930529
2026-05-10 11:31:23.550,824,1.6518648,0.27001578,0.38544932,-2.3044891,-0.5681047,5.216331
2026-05-10 11:31:23.560,825,1.737662375,0.45014821,0.48960173500000004,-1.3839152075,-1.1827878250000001,4.42518425
2026-05-10 11:31:23.570,826,1.6746709,0.6884548,0.5721675,-0.12858713,-1.7547103999999998,3.4549012
2026-05-10 11:31:23.580,827,1.6746709,0.6884548,0.5721675,-0.12858713,-1.7547104,3.4549012
2026-05-10 11:31:23.590,828,1.495575075,0.74486054,0.45621562000000004,-0.10018189699999999,-1.671098225,3.4691038
2026-05-10 11:31:23.600,829,0.9468845,1.03597508,-0.056893555,-0.347582314,-1.04312877,3.82936145
2026-05-10 11:31:23.610,830,1.1065483333333332,1.2088104,-0.21515483,-0.9876673433333333,-0.45382198,4.3044111
2026-05-10 11:31:23.620,831,2.1284931,1.518975875,-0.0607352535,-1.1414018,-0.34773505,4.383111
2026-05-10 11:31:23.630,832,2.6285374,1.6893669,0.06524771100000001,-1.45599735,-0.23037256,3.5306485000000003
2026-05-10 11:31:23.640,833,2.593525233333333,1.9187298000000002,0.20619088666666666,-1.6740252666666666,-0.15251269,2.059277666666667
2026-05-10 11:31:23.650,834,2.2616563,2.1957378,0.2338551,-1.48089,-0.23151793,0.821461
2026-05-10 11:31:23.660,835,2.7847052,2.23766095,0.30748746250000003,-3.03057885,0.993114165,0.28199066
2026-05-10 11:31:23.670,836,3.1078641,2.2636077,1.2588539,-1.7864754,1.2463179,-0.8145888
2026-05-10 11:31:23.680,837,3.1078641,2.2636077,1.2588539,-1.7864753999999998,1.2463179,-0.8145888
2026-05-10 11:31:23.690,838,3.0934884,2.23476455,1.0969542,-0.38717405,0.9159542749999999,-1.563585975
2026-05-10 11:31:23.700,839,2.9218017,2.0958996,0.5630053975,0.5876524,0.5580254,-2.1781929
2026-05-10 11:31:23.710,840,2.69323645,1.915309825,0.2621951735,0.8408942,0.23323598375,-2.69364855
2026-05-10 11:31:23.720,841,1.7940072,1.1876912,0.099274084,-0.15907949333333335,0.5926920266666668,-3.6092973333333336
2026-05-10 11:31:23.730,842,1.716563625,1.1284347,0.1600398305,-0.248660335,0.7113144250000001,-3.56478055
2026-05-10 11:31:23.740,843,1.4842329,0.9506652,0.34233707,0.13973543,0.6967681825,-3.39446365
2026-05-10 11:31:23.750,844,1.4842329,0.9506652,0.34233706999999997,0.27015516,0.65209866,-3.3783903
2026-05-10 11:31:23.760,845,1.2698911,0.7443727,0.44215995,0.27015516,0.65209866,-3.3783903
2026-05-10 11:31:23.770,846,1.171425025,0.6788505775,0.410313575,0.5606215800000001,0.52973471,-3.3447927
2026-05-10 11:31:23.780,847,0.9957084866666667,0.5518817666666668,0.3202829,1.1582005,0.25101471000000003,-3.2803973
2026-05-10 11:31:23.790,848,0.95420206,0.5046026,0.2830043,1.3640621,0.13362677,-3.2795827
2026-05-10 11:31:23.800,849,0.90490039,0.4154663225,0.2500298225,1.4611896500000001,0.095524052,-3.3057736
2026-05-10 11:31:23.810,850,0.85567495,0.36038689749999997,0.2311872625,1.5583172,0.057421334,-3.3319645
2026-05-10 11:31:23.820,851,0.5409462,0.10957957,0.109884456,1.9790507,0.0237473855,-3.4455855
2026-05-10 11:31:23.830,852,0.47380814,0.058296088,0.04329521,1.9541580000000003,0.05345070700000001,-3.413515
2026-05-10 11:31:23.840,853,0.47004267499999997,0.043676331625,0.03995660075,1.954158,0.053450707,-3.413515
2026-05-10 11:31:23.850,854,0.45874628,-0.0001829375,0.029940773,1.8519907,0.16798794,-3.3644931
2026-05-10 11:31:23.860,855,0.4626489475,-0.016098500624999998,0.034773372250000004,1.820225725,0.21498638,-3.365485775
2026-05-10 11:31:23.870,856,0.47722298,-0.1232389,0.07982173,1.6646078,0.5019785,-3.4402404
2026-05-10 11:31:23.880,857,0.44621508,-0.19458452499999998,0.10506710999999999,1.6617825,0.549244215,-3.4800229
2026-05-10 11:31:23.890,858,0.41520718,-0.26593015,0.13031249,1.672930775,0.6296875475,-3.54882155
2026-05-10 11:31:23.900,859,0.38352849,-0.28812656,0.12329988,1.7148515,0.7292204,-3.63587
2026-05-10 11:31:23.910,860,0.32024226666666666,-0.30536333666666665,0.06699577666666666,1.7791959333333331,0.7058038933333334,-3.6561811666666664
2026-05-10 11:31:23.920,861,0.26836932,-0.31977475,-0.09098092,1.7041613,0.27656925,-3.5193474
2026-05-10 11:31:23.930,862,0.25769794,-0.34355664,-0.10909174,1.5442164333333332,0.25116742666666664,-3.4716999333333334
2026-05-10 11:31:23.940,863,0.24859174000000003,-0.35367918000000004,-0.10689648666666667,1.3826935,0.22327125,-3.4191656
2026-05-10 11:31:23.950,864,0.24403864,-0.35874045,-0.10579886,1.3826935,0.22327125,-3.4191656
2026-05-10 11:31:23.960,865,0.34441036,-0.2628812,-0.05110054,1.34901955,0.164704542,-3.4190128
2026-05-10 11:31:23.970,866,0.42829736,-0.21661833666666666,-0.044474137999999996,1.3465506333333332,0.013540842666666664,-3.5310046666666666
2026-05-10 11:31:23.980,867,0.65904757,-0.093130435,-0.042563461,1.5111279499999999,-0.378278305,-4.03144325
2026-05-10 11:31:23.990,868,0.68003964,-0.08280971,-0.04634417,1.6749925,-0.77411898,-4.5317801499999995
2026-05-10 11:31:24.000,869,0.7055289733333333,-0.043376514666666664,-0.11980373666666666,1.8048013,-1.1010846,-4.9400673
2026-05-10 11:31:24.010,870,0.71827364,-0.023659917,-0.15653352,1.8048013,-1.1010846,-4.9400673
2026-05-10 11:31:24.020,871,0.594333455,0.0027288180000000005,-0.2113690275,1.853937775,-1.426484925,-5.328119324999999
2026-05-10 11:31:24.030,872,0.2716621866666667,0.026668223333333334,-0.24686398666666665,1.8703166,-1.5349517,-5.45747
2026-05-10 11:31:24.040,873,-0.86251988,0.0629914795,-0.26105182,0.99464136,-1.7163786,-5.654016
2026-05-10 11:31:24.050,874,-2.07051705,0.15830192375,-0.060521825635,0.5793675125,-1.3415745875,-4.681900225000001
2026-05-10 11:31:24.060,875,-2.282694,0.18805976,-0.00042685417999999993,0.24801129,-0.9917397500000001,-3.5556939
2026-05-10 11:31:24.070,876,-2.245237575,0.1912611675,-0.00015244791,0.21109212125,-0.9358073875,-3.244267125
2026-05-10 11:31:24.080,877,-1.823277075,0.2079847025,-0.11098208455,-0.19116264125000001,-0.3173826725,-0.9765062425
2026-05-10 11:31:24.090,878,-1.0419916666666664,0.10903075333333334,-0.3151200066666667,-1.4693854666666668,0.7559966333333333,0.3121012266666667
2026-05-10 11:31:24.100,879,-1.0582934499999999,-0.0007622399999999974,-0.20397531,-1.8184695,0.9645562,0.40706532500000003
2026-05-10 11:31:24.110,880,-1.1048206,-0.07829725,-0.11573846,-1.8715384,0.9944886,0.42394048
2026-05-10 11:31:24.120,881,-1.212067725,-0.1898738875,0.027745522499999994,-1.700496125,0.826195225,0.738536085
2026-05-10 11:31:24.130,882,-1.4338235333333333,-0.7247577066666667,0.5102127,-0.3612249733333333,-0.2671517333333333,3.0401746000000003
2026-05-10 11:31:24.140,883,-1.32545845,-0.782499895,0.508413825,-0.11297189,-0.3631212075,3.5528304750000004
2026-05-10 11:31:24.150,884,-1.1277487,-0.845842,0.4896627,0.17531833,-0.39828414,4.2223005
2026-05-10 11:31:24.160,885,-0.7194932,-0.94298184,0.37081432,0.2662227075,-0.31757357,4.55113695
2026-05-10 11:31:24.170,886,-0.16763173,-0.9590804,0.16555844,0.56398135,0.27305678,6.453333400000001
2026-05-10 11:31:24.180,887,0.6020168,-0.9033301525,-0.11337551625,0.1915826175,0.68653619,7.141472974999999
2026-05-10 11:31:24.190,888,0.6288781,-0.90139407,-0.12226323,0.15057829,0.7104363,7.1741543
2026-05-10 11:31:24.200,889,1.256496066666667,-0.7214242,-0.2663163533333333,-1.1824824,0.90133166,7.183775399999999
2026-05-10 11:31:24.210,890,1.2429384,-0.7012604,-0.24781933,-1.304120925,0.921070245,7.17869755
2026-05-10 11:31:24.220,891,1.1011008,-0.6796738,-0.110555224,-2.4383068,1.339971075,7.294456674999999
2026-05-10 11:31:24.230,892,1.0648792,-0.6866254466666666,-0.065918478,-2.9103148,1.6543757999999997,7.4414077
2026-05-10 11:31:24.240,893,1.0467684,-0.69010127,-0.043600105,-2.9103148,1.6543758,7.4414077
2026-05-10 11:31:24.250,894,1.8438118000000001,-0.39795005000000006,0.126608001,-3.4789921,2.0007364499999998,7.315989399999999
2026-05-10 11:31:24.260,895,2.1612847,-0.005472878499999997,0.29167861,-3.1302263,1.0466412,4.7716975
2026-05-10 11:31:24.270,896,0.2807481,0.07402871,0.8219992,-1.5113824666666666,-0.66009078,2.7162631666666663
2026-05-10 11:31:24.280,897,-0.17818113,0.08823685,0.7063217,-0.13103057499999998,-1.2754866,3.38938575
2026-05-10 11:31:24.290,898,0.9691114325,0.4531667075,0.0593327325,1.027818975,-1.4417565,5.157077125000001
2026-05-10 11:31:24.300,899,2.0485952,0.8612698,-0.18244967,1.0930415,-1.4845552666666666,5.563709800000001
2026-05-10 11:31:24.310,900,2.0485952,0.8612698,-0.18244967,1.0818423,-1.5259414,5.4953437
2026-05-10 11:31:24.320,901,2.5900901,1.265561725,-0.38006792,0.893428605,-1.810909975,4.56415615
2026-05-10 11:31:24.330,902,2.558624875,1.706761225,-0.5282015499999999,0.0255036535,-1.71687495,3.2748104749999998
2026-05-10 11:31:24.340,903,1.9853800333333336,1.9761925333333334,-0.02782683666666665,-2.728633166666667,-0.13866641999999998,1.8389079666666668
2026-05-10 11:31:24.350,904,2.0131662,1.9751152,0.13000758,-3.3652565500000002,0.470175345,1.8220201
2026-05-10 11:31:24.360,905,2.7941875,2.1596992,0.82840204,-3.013551,0.6107125,1.163851
2026-05-10 11:31:24.370,906,3.020450625,2.2226907,0.991826185,-2.2595523600000003,0.1776854275,0.6084599525
2026-05-10 11:31:24.380,907,3.205187,2.30361,1.1712269,-0.91599244,-0.40882155000000003,-0.38698313
2026-05-10 11:31:24.390,908,3.205187,2.30361,1.1712269,-0.91599244,-0.40882155,-0.38698313
2026-05-10 11:31:24.400,909,2.5421910166666666,1.8233076,0.993808005,-0.22199860999999999,-0.7025968499999999,0.9089165633333334
2026-05-10 11:31:24.410,910,1.8791950333333334,1.3430052,0.81638911,0.47199522000000005,-0.99637215,2.2048162566666667
2026-05-10 11:31:24.420,911,1.2161990500000002,0.8627028,0.6389702150000001,1.1659890499999999,-1.29014745,3.50071595
2026-05-10 11:31:24.430,912,1.2575124,1.0148153500000001,0.353008405,1.721571,-1.3020593,3.4726162
2026-05-10 11:31:24.440,913,1.343676,1.1162847,0.10896978,1.721571,-1.3020593,3.4726162
2026-05-10 11:31:24.450,914,1.343676,1.1162847,0.10896978,1.6929621666666665,-1.2431616666666667,3.381240933333333
2026-05-10 11:31:24.460,915,1.5446023,1.244584825,-0.146090835,1.6357445,-1.1253664,3.1984904
2026-05-10 11:31:24.470,916,1.8594987,1.4789887,-0.6397019500000001,1.2135602,-0.9126708250000001,2.73072035
2026-05-10 11:31:24.480,917,1.89248845,1.595215,-0.7933085,-0.32391129,-0.37675114,1.642464
2026-05-10 11:31:24.490,918,1.8876710999999997,1.6491206,-0.8410857000000002,-0.7846563999999999,-0.27076602,1.4081972
2026-05-10 11:31:24.500,919,1.9207371,1.660325525,-0.740561475,-0.7846564,-0.27076602,1.4081972
2026-05-10 11:31:24.510,920,1.9317591,1.6640605,-0.7070534,-1.9665279,-0.05787948,0.9633345
2026-05-10 11:31:24.520,921,1.9690479,1.655249,-0.5775489075,-1.9665279,-0.05787948,0.9633345
2026-05-10 11:31:24.530,922,2.1551462,1.6601781333333332,0.05996284666666666,-2.3433809333333335,0.06831509666666667,0.7288640533333334
2026-05-10 11:31:24.540,923,2.30361,1.7229054,0.5579594,-2.890767,0.4569272,-0.2790127
2026-05-10 11:31:24.550,924,2.30361,1.7229054,0.5579594,-2.890767,0.4569272,-0.2790127
2026-05-10 11:31:24.560,925,2.32181225,1.7144902499999999,0.6015900000000001,-2.8024207,0.45807257,-0.354301835
2026-05-10 11:31:24.570,926,2.4408537666666668,1.7335157666666667,0.71985908,-2.4214189999999998,0.41411572666666663,-0.5332344466666666
2026-05-10 11:31:24.580,927,2.87467995,1.8178195,0.8556749,-1.2408963325,0.120913135,-0.9981156125
2026-05-10 11:31:24.590,928,3.0407872,1.8293141,0.8197429,-0.41416663,-0.13622294,-1.4575244
2026-05-10 11:31:24.600,929,3.0256643000000003,1.7910802,0.61363333,-0.071776666,0.0025961774,-1.7621936
2026-05-10 11:31:24.610,930,3.1011261,1.7794636,0.47926578,0.233465066,0.43673046185000003,-2.2888739
2026-05-10 11:31:24.620,931,2.70523405,1.527832975,0.3826595225,1.1129582875,0.4816290575,-3.717955075
2026-05-10 11:31:24.630,932,2.19540235,1.2219615,0.193974732,1.2901474,0.45433104,-4.0065126
2026-05-10 11:31:24.640,933,1.9780421,1.106345,0.093481064,1.3585643,0.5508477,-4.264603
2026-05-10 11:31:24.650,934,1.8052577749999998,0.959080325,-0.007637640250000001,1.250670275,0.579825675,-4.347413275
2026-05-10 11:31:24.660,935,1.009845475,0.58858615,-0.07160478375,0.8949176,0.6232353,-4.4474044
2026-05-10 11:31:24.670,936,0.8202307,0.5255185,-0.048051585,0.7469355,0.57711494,-4.162894
2026-05-10 11:31:24.680,937,0.8202307000000001,0.5255185,-0.048051585,0.7335473666666666,0.54784431,-4.097226
2026-05-10 11:31:24.690,938,0.65814817,0.43892804,0.00512225,0.7067711,0.48930305,-3.96589
2026-05-10 11:31:24.700,939,0.65814817,0.43892804,0.00512225,0.7067711,0.48930305,-3.96589
2026-05-10 11:31:24.710,940,0.5838755425,0.3720186575,0.021083546,0.71181074,0.47013715500000003,-3.930994325
2026-05-10 11:31:24.720,941,0.559118,0.34971553,0.026403978,0.72692966,0.41263947,-3.8263073
2026-05-10 11:31:24.730,942,0.4572218133333333,0.22708642,0.011850284333333334,0.7293731066666668,0.4212934,-3.752138066666667
2026-05-10 11:31:24.740,943,0.405267535,0.0009756725000000036,0.052350613000000004,0.84467393,0.6415612150000001,-3.62701235
2026-05-10 11:31:24.750,944,0.38794947,-0.09256637,0.077077664,0.9083184475,0.6663012475000001,-3.632701075
2026-05-10 11:31:24.760,945,0.24515657999999999,-0.2652797066666666,-0.03703468066666667,0.9926051333333333,0.6863071133333333,-3.500461533333333
2026-05-10 11:31:24.770,946,0.242941,-0.28446782,-0.059820563,0.99265605,0.69058317,-3.4429893
2026-05-10 11:31:24.780,947,0.32306762499999997,-0.3744273425,-0.18865429325,0.71769031,0.8158868925,-3.33688955
2026-05-10 11:31:24.790,948,0.440574475,-0.512026845,-0.12148574250000001,-0.1757001175,1.1724413,-3.414736725
2026-05-10 11:31:24.800,949,0.4247199,-0.7114439,0.12769037,-0.47754389999999997,1.2544118,-3.6664133
2026-05-10 11:31:24.810,950,0.4247199,-0.7114439,0.12769037,-0.27107146,1.1673635,-3.8472292
2026-05-10 11:31:24.820,951,0.27910164,-0.81864536,0.24952675,-0.27107146,1.1673635,-3.8472292
2026-05-10 11:31:24.830,952,0.1322943,-0.8725204775000001,0.27399463749999997,-0.005001459999999992,1.09692305,-3.8888063500000003
2026-05-10 11:31:24.840,953,-0.14137003733333334,-0.9379002566666667,0.27332896,0.3681481266666667,1.0135781333333334,-3.8081848666666667
2026-05-10 11:31:24.850,954,-0.561541895,-0.79814109,0.1865810215,1.9308687,0.36942077,-2.661654375
2026-05-10 11:31:24.860,955,-1.0031073,-0.44642848,-0.12317792,3.7505598,-0.9819659,-0.33276883
2026-05-10 11:31:24.870,956,-1.0031073,-0.44642848,-0.12317792,3.7505598,-0.9819659,-0.33276883
2026-05-10 11:31:24.880,957,-0.556617825,-0.0764068955,-0.691473275,2.165288275,-0.19058998000000002,1.979546925
2026-05-10 11:31:24.890,958,-0.155740802,-0.0760562625,-0.6413179025,0.349567641,1.144417885,3.034243975
2026-05-10 11:31:24.900,959,-0.031221334,-0.12397064,-0.55369085,-1.1235338,2.0152445,3.8568504
2026-05-10 11:31:24.910,960,0.21679617999999998,-0.40229482,-0.18135204075,-2.1114558,2.2638283500000003,4.6491426250000005
2026-05-10 11:31:24.920,961,0.26147866,-0.49673631999999995,-0.023294043,-2.3976462,2.0060816,5.426316
2026-05-10 11:31:24.930,962,0.308737515,-0.519085185,0.0233245335,-2.3976462,2.0060816,5.426316
2026-05-10 11:31:24.940,963,0.35599637,-0.54143405,0.06994311,-2.30326755,1.633491875,5.913442874999999
2026-05-10 11:31:24.950,964,0.6844708566666666,-0.60143753,0.11913297,-2.1319198,1.2438743666666667,6.4502789
2026-05-10 11:31:24.960,965,0.8487081,-0.63143927,0.1437279,-1.81026095,0.6572528599999999,7.277008675
2026-05-10 11:31:24.970,966,1.042667625,-0.6443820874999999,0.1393374,-1.6846136,0.48991394,7.5104356
2026-05-10 11:31:24.980,967,1.5018712250000001,-0.6044102625,0.07018702225,-1.4339680000000001,0.303600035,7.7679152
2026-05-10 11:31:24.990,968,2.070075075,-0.51271285,-0.08761181800000001,-1.177557325,0.1441260225,8.214610500000001
2026-05-10 11:31:25.000,969,2.2963536,-0.39349857,-0.2826994,-1.1348349,-0.19898935000000004,8.160702
2026-05-10 11:31:25.010,970,2.13152685,-0.3450658575,-0.39131854,-1.3477214499999999,-0.16668985,8.0668577
2026-05-10 11:31:25.020,971,2.054174725,-0.254770955,-0.24313916975,-1.946483925,-0.0792215845,7.986834275
2026-05-10 11:31:25.030,972,2.2107997,-0.0678393265,0.0503687905,-2.231834375,-0.1826487,7.92044065
2026-05-10 11:31:25.040,973,2.4365242333333335,0.274223329,0.17728677333333334,-1.9586884666666666,-0.5878559766666667,7.2605915
2026-05-10 11:31:25.050,974,2.5271749000000003,0.46530156,0.2345106425,-1.7235563,-0.80557853,6.6306367
2026-05-10 11:31:25.060,975,2.5376482,0.5822901,0.2608079,-1.6123788,-0.75136423,6.058256
2026-05-10 11:31:25.070,976,2.5376482,0.5822901,0.2608079,-1.5394822,-0.7471899966666666,5.7381625666666665
2026-05-10 11:31:25.080,977,2.4631012,0.73508865,0.330644285,-1.393689,-0.73884153,5.0979757
2026-05-10 11:31:25.090,978,2.4382522,0.7860215,0.35392308,-1.393689,-0.73884153,5.0979757
2026-05-10 11:31:25.100,979,2.40053655,0.828676415,0.41279847999999997,-1.3396656249999999,-0.7677430974999999,4.97851345
2026-05-10 11:31:25.110,980,2.3628209,0.87133133,0.47167388,-1.1775955,-0.8544478,4.6201267
2026-05-10 11:31:25.120,981,2.07989275,1.091085015,0.37767447375,-0.37850738500000003,-1.3608932249999999,3.71700055
2026-05-10 11:31:25.130,982,1.6079596,1.4643537,-0.53558004,0.44303003,-1.8640553,2.5329528
2026-05-10 11:31:25.140,983,1.8831586,1.4298395,-0.41432296,-1.5645786775000001,-0.43478335,1.9254090750000001
2026-05-10 11:31:25.150,984,2.1583576,1.3953253000000003,-0.29306588,-3.090062,0.679893,1.4236214
2026-05-10 11:31:25.160,985,2.4459355,1.47348535,0.37653112749999995,-3.109685975,0.8311585349999999,0.660956185
2026-05-10 11:31:25.170,986,2.58066895,1.4529811750000001,0.570505855,-1.820034825,0.16581173249999998,-0.7493789750000001
2026-05-10 11:31:25.180,987,2.6191467999999998,1.342425975,0.13049542025,-0.567722895,-0.376674785,-1.863215425
2026-05-10 11:31:25.190,988,2.6276534,1.3107473,-0.012927583,-0.49388456,-0.38728857,-1.9740111
2026-05-10 11:31:25.200,989,2.6276534,1.3107473,-0.012927583,-0.49388456,-0.38728857,-1.9740111
2026-05-10 11:31:25.210,990,2.7378427,1.3348188,-0.08131571975,-0.5950209325,-0.29298624675,-2.1416935749999997
2026-05-10 11:31:25.220,991,3.0684106,1.4070333,-0.28648013,-1.17097775,0.15607606766666668,-2.8575258
2026-05-10 11:31:25.230,992,3.2756790249999996,1.357503,-0.3365592725,-1.3072516,0.23915374,-2.9639182
2026-05-10 11:31:25.240,993,3.5681808250000002,1.3172109250000001,-0.248703535,-1.5603789,0.45349109,-3.1597005
2026-05-10 11:31:25.250,994,3.6426516,1.3092836,-0.21385394,-2.01921515,0.885334635,-3.719367575
2026-05-10 11:31:25.260,995,3.9080937,1.2392186,0.005610083,-2.046665825,1.1002065,-4.274414875000001
2026-05-10 11:31:25.270,996,3.9687071333333335,0.8273043666666666,0.42295148,-1.6386969333333334,1.3020592333333332,-5.098128666666667
2026-05-10 11:31:25.280,997,3.8657744,0.7115659,0.5001511,-1.329701,1.3677273,-5.480836
2026-05-10 11:31:25.290,998,3.4394386499999996,0.4452089075,0.5007609700000001,-0.6396904425,1.34924865,-6.0243150000000005
2026-05-10 11:31:25.300,999,2.9129138999999995,0.28198799333333335,0.3317673366666667,-0.132455946,1.2944743333333335,-6.315684666666667
2026-05-10 11:31:25.310,1000,2.4524905749999997,0.192191094,0.254923405,-0.126105495,1.63311005,-6.226244125
2026-05-10 11:31:25.320,1001,1.9665172,0.016342416,0.27550387,0.2396119,2.1300871,-5.9675426
