timestamp,id,acc_x,acc_y,acc_z,gyro_x,gyro_y,gyro_z
2026-05-10 11:25:00.050,1,0.39849886,-0.017805915,1.0146323,-0.4352415,-0.086132,-0.28863382
2026-05-10 11:25:00.060,2,0.44212946,-0.024788031,1.035975,-0.36102136,-0.282830615,-0.178372645
2026-05-10 11:25:00.070,3,0.48576006,-0.031770147,1.0573177,-0.28680122,-0.47952923,-0.06811147
2026-05-10 11:25:00.080,4,0.48576006,-0.031770147,1.0573177,-0.28680122,-0.47952923,-0.06811147
2026-05-10 11:25:00.090,5,0.48576006,-0.031770147,1.0573177,-0.28680122,-0.47952923,-0.06811147
2026-05-10 11:25:00.100,6,0.52359761,-0.018720604749999998,1.0518906000000001,-0.28680122,-0.47952923,-0.06811147
2026-05-10 11:25:00.110,7,0.56143516,-0.0056710625,1.0464635,-0.28680122,-0.47952923,-0.06811147
2026-05-10 11:25:00.120,8,0.56143516,-0.0056710625,1.0464635,-0.2003638,-0.5348125,-0.10797043
2026-05-10 11:25:00.130,9,0.56143516,-0.0056710625,1.0464635,-0.2003638,-0.5348125,-0.10797043
2026-05-10 11:25:00.140,10,0.56143516,-0.0056710625,1.0464635,-0.2003638,-0.5348125,-0.10797043
2026-05-10 11:25:00.150,11,0.56143516,-0.0056710625,1.0464635,-0.2003638,-0.5348125,-0.10797043
2026-05-10 11:25:00.160,12,0.56143516,-0.0056710625,1.0464635,-0.2003638,-0.5348125,-0.10797043
2026-05-10 11:25:00.170,13,0.56143516,-0.0056710625,1.0464635,-0.2003638,-0.5348125,-0.10797043
2026-05-10 11:25:00.180,14,0.56143516,-0.0056710625,1.0464635,-0.2003638,-0.5348125,-0.10797043
2026-05-10 11:25:00.190,15,0.58911974,-0.0045531111,1.0334342666666665,-0.15454890666666668,-0.5501350500000001,-0.15459981
2026-05-10 11:25:00.200,16,0.6444889,-0.0023172083,1.0073758,-0.06291912,-0.58078015,-0.24785857
2026-05-10 11:25:00.210,17,0.6444889,-0.0023172083,1.0073758,-0.06291912,-0.58078015,-0.24785857
2026-05-10 11:25:00.220,18,0.6444889,-0.0023172083,1.0073758,-0.06291912,-0.58078015,-0.24785857
2026-05-10 11:25:00.230,19,0.6444889,-0.0023172083,1.0073758,-0.06291912,-0.58078015,-0.24785857
2026-05-10 11:25:00.240,20,0.6444889,-0.0023172083,1.0073758,-0.06291912,-0.58078015,-0.24785857
2026-05-10 11:25:00.250,21,0.6444889,-0.0023172083,1.0073758,-0.06291912,-0.58078015,-0.24785857
2026-05-10 11:25:00.260,22,0.6444889,-0.0023172083,1.0073758,-0.06291912,-0.58078015,-0.24785857
2026-05-10 11:25:00.270,23,0.6444889,-0.0023172083,1.0073758,-0.06291912,-0.58078015,-0.24785857
2026-05-10 11:25:00.280,24,0.6444889,-0.0023172083,1.0073758,-0.06291912,-0.58078015,-0.24785857
2026-05-10 11:25:00.290,25,0.6444889,-0.0023172083,1.0073758,-0.06291912,-0.58078015,-0.24785857
2026-05-10 11:25:00.300,26,0.6444889,-0.0023172083,1.0073758,-0.06291912,-0.58078015,-0.24785857
2026-05-10 11:25:00.310,27,0.6444889,-0.0023172083,1.0073758,-0.06291912,-0.58078015,-0.24785857
2026-05-10 11:25:00.320,28,0.6444889,-0.0023172083,1.0073758,-0.06291912,-0.58078015,-0.24785857
2026-05-10 11:25:00.330,29,0.6444889,-0.0023172083,1.0073758,-0.06291912,-0.58078015,-0.24785857
2026-05-10 11:25:00.340,30,0.6444889,-0.0023172083,1.0073758,-0.06291912,-0.58078015,-0.24785857
2026-05-10 11:25:00.350,31,0.6444889,-0.0023172083,1.0073758,-0.06291912,-0.58078015,-0.24785857
2026-05-10 11:25:00.360,32,0.6444889,-0.0023172083,1.0073758,-0.06291912,-0.58078015,-0.24785857
2026-05-10 11:25:00.370,33,0.6444889,-0.0023172083,1.0073758,-0.011759156,-0.5887214,-0.344528
2026-05-10 11:25:00.380,34,0.6444889,-0.0023172083,1.0073758,-0.011759156,-0.5887214,-0.344528
2026-05-10 11:25:00.390,35,0.6444889,-0.0023172083,1.0073758,-0.011759156,-0.5887214,-0.344528
2026-05-10 11:25:00.400,36,0.6477817675,-0.0011738489,1.0028938374999998,-0.011759156,-0.5887214,-0.344528
2026-05-10 11:25:00.410,37,0.65766037,0.0022562293,0.98944795,-0.011759156,-0.5887214,-0.344528
2026-05-10 11:25:00.420,38,0.65766037,0.0022562293,0.9894479500000001,-0.011759156,-0.5887214,-0.344528
2026-05-10 11:25:00.430,39,0.65766037,0.0022562293,0.98944795,-0.011759156,-0.5887214,-0.344528
2026-05-10 11:25:00.440,40,0.65766037,0.0022562293,0.98944795,-0.011759156,-0.5887214,-0.344528
2026-05-10 11:25:00.450,41,0.65766037,0.0022562293,0.98944795,-0.011759156,-0.5887214,-0.344528
2026-05-10 11:25:00.460,42,0.65766037,0.0022562293,0.98944795,-0.011759156,-0.5887214,-0.344528
2026-05-10 11:25:00.470,43,0.65766037,0.0022562293,0.9894479500000001,-0.011759156,-0.5887214,-0.344528
2026-05-10 11:25:00.480,44,0.65766037,0.0022562293,0.98944795,-0.011759156,-0.5887214,-0.344528
2026-05-10 11:25:00.490,45,0.65766037,0.0022562293,0.98944795,-0.011759156,-0.5887214,-0.344528
2026-05-10 11:25:00.500,46,0.65766037,0.0022562293,0.9894479500000001,-0.011759156,-0.5887214,-0.344528
2026-05-10 11:25:00.510,47,0.65766037,0.0022562293,0.98944795,-0.011759156,-0.5887214,-0.344528
2026-05-10 11:25:00.520,48,0.65766037,0.0022562293,0.98944795,-0.011759156,-0.5887214,-0.344528
2026-05-10 11:25:00.530,49,0.65766037,0.0022562293,0.98944795,-0.011759156,-0.5887214,-0.344528
2026-05-10 11:25:00.540,50,0.65766037,0.0022562293,0.98944795,-0.011759156,-0.5887214,-0.344528
2026-05-10 11:25:00.550,51,0.65766037,0.0022562293,0.98944795,-0.011759156,-0.5887214,-0.344528
2026-05-10 11:25:00.560,52,0.65766037,0.0022562293,0.98944795,-0.011759156,-0.5887214,-0.344528
2026-05-10 11:25:00.570,53,0.65766037,0.0022562293,0.9894479500000001,-0.011759156,-0.5887214,-0.344528
2026-05-10 11:25:00.580,54,0.65766037,0.0022562293,0.98944795,-0.011759156,-0.5887214,-0.344528
2026-05-10 11:25:00.590,55,0.65766037,0.0022562293,0.98944795,-0.011759156,-0.5887214,-0.344528
2026-05-10 11:25:00.600,56,0.6605873466666666,-0.0008537081333333333,0.99042362,-0.011759156,-0.5887214,-0.344528
2026-05-10 11:25:00.610,57,0.6664413,-0.007073583,0.99237496,-0.011759156,-0.5887214,-0.344528
2026-05-10 11:25:00.620,58,0.6664413,-0.007073583,0.99237496,-0.011759156,-0.5887214,-0.344528
2026-05-10 11:25:00.630,59,0.6664413,-0.007073583,0.99237496,-0.0032070425,-0.5468389425,-0.3981696
2026-05-10 11:25:00.640,60,0.6664413,-0.007073583,0.99237496,0.022449298,-0.42119157,-0.5590944
2026-05-10 11:25:00.650,61,0.6664413,-0.007073582999999999,0.9923749599999999,0.022449297999999996,-0.42119157,-0.5590944
2026-05-10 11:25:00.660,62,0.6664413,-0.007073583,0.99237496,0.022449298,-0.42119157,-0.5590944
2026-05-10 11:25:00.670,63,0.6664413,-0.007073583,0.99237496,0.022449298,-0.42119157,-0.5590944
2026-05-10 11:25:00.680,64,0.6664413,-0.007073583,0.99237496,0.022449298,-0.42119157,-0.5590944
2026-05-10 11:25:00.690,65,0.6664413,-0.007073583,0.99237496,0.022449298,-0.42119157,-0.5590944
2026-05-10 11:25:00.700,66,0.6664413,-0.007073582999999999,0.9923749599999999,0.022449297999999996,-0.42119157,-0.5590944
2026-05-10 11:25:00.710,67,0.6664413,-0.007073583,0.99237496,0.022449298,-0.42119157,-0.5590944
2026-05-10 11:25:00.720,68,0.6664413,-0.007073583,0.99237496,0.022449298,-0.42119157,-0.5590944
2026-05-10 11:25:00.730,69,0.6664413,-0.007073583,0.99237496,0.022449298,-0.42119157,-0.5590944
2026-05-10 11:25:00.740,70,0.6664413,-0.007073583,0.99237496,0.022449298,-0.42119157,-0.5590944
2026-05-10 11:25:00.750,71,0.6664413,-0.007073583,0.99237496,0.022449298,-0.42119157,-0.5590944
2026-05-10 11:25:00.760,72,0.6664413,-0.007073583,0.99237496,0.022449298,-0.42119157,-0.5590944
2026-05-10 11:25:00.770,73,0.6664413,-0.007073582999999999,0.9923749599999999,0.022449297999999996,-0.42119157,-0.5590944
2026-05-10 11:25:00.780,74,0.6664413,-0.007073583,0.99237496,0.022449298,-0.42119157,-0.5590944
2026-05-10 11:25:00.790,75,0.6664413,-0.007073583,0.99237496,0.022449298,-0.42119157,-0.5590944
2026-05-10 11:25:00.800,76,0.6664413,-0.007073583,0.99237496,0.022449298,-0.42119157,-0.5590944
2026-05-10 11:25:00.810,77,0.6664413,-0.007073583,0.99237496,0.022449298,-0.42119157,-0.5590944
2026-05-10 11:25:00.820,78,0.6664413,-0.007073582999999999,0.9923749599999999,0.022449297999999996,-0.42119157,-0.5590944
2026-05-10 11:25:00.830,79,0.6664413,-0.007073583,0.99237496,0.022449298,-0.42119157,-0.5590944
2026-05-10 11:25:00.840,80,0.629487945,-0.01489416075,1.00426594,0.083039497,-0.24251350500000002,-0.66469773
2026-05-10 11:25:00.850,81,0.61717016,-0.01750102,1.0082296,0.10323623,-0.18295415,-0.69989884
2026-05-10 11:25:00.860,82,0.61717016,-0.01750102,1.0082296,0.10323623,-0.18295415,-0.69989884
2026-05-10 11:25:00.870,83,0.57427133,-0.034483718499999996,0.99142983,0.10323623,-0.18295415,-0.69989884
2026-05-10 11:25:00.880,84,0.5313725,-0.051466417,0.97463006,0.10323623,-0.18295415,-0.69989884
2026-05-10 11:25:00.890,85,0.35495973,-0.03506302,0.86492854,0.10323623,-0.18295415,-0.69989884
2026-05-10 11:25:00.900,86,0.35495973,-0.03506302,0.8649285399999999,0.12415835999999998,-0.41370848,-0.39813143
2026-05-10 11:25:00.910,87,0.35495973,-0.03506302,0.86492854,0.12415836,-0.41370848,-0.39813143
2026-05-10 11:25:00.920,88,0.35495973,-0.03506302,0.86492854,0.12415836,-0.41370848,-0.39813143
2026-05-10 11:25:00.930,89,0.35495973,-0.03506302,0.86492854,0.12415836,-0.41370848,-0.39813143
2026-05-10 11:25:00.940,90,0.35495973,-0.03506302,0.86492854,0.12415836,-0.41370848,-0.39813143
2026-05-10 11:25:00.950,91,0.35089444333333336,-0.05977990933333333,0.7898835133333333,0.12415835999999998,-0.41370848,-0.39813143
2026-05-10 11:25:00.960,92,0.37361938,-0.06683317,0.5996082,0.12415836,-0.41370848,-0.39813143
2026-05-10 11:25:00.970,93,0.37361938,-0.06683317,0.5996082,0.12415836,-0.41370848,-0.39813143
2026-05-10 11:25:00.980,94,0.37361938,-0.06683317,0.5996082,0.12415836,-0.41370848,-0.39813143
2026-05-10 11:25:00.990,95,0.37361938,-0.06683317,0.5996082,0.12415836,-0.41370848,-0.39813143
2026-05-10 11:25:01.000,96,0.37361938,-0.06683317,0.5996082,0.12415835999999998,-0.41370848,-0.39813143
2026-05-10 11:25:01.010,97,0.37361938,-0.06683317,0.5996082,0.12415836,-0.41370848,-0.39813143
2026-05-10 11:25:01.020,98,0.37361938,-0.06683317,0.5996082,0.12415836,-0.41370848,-0.39813143
2026-05-10 11:25:01.030,99,0.37361938,-0.06683317,0.5996082,-0.4370741,-0.5331327,0.015882496
2026-05-10 11:25:01.040,100,0.37361938,-0.06683317,0.5996082,-0.4370741,-0.5331327,0.015882496
2026-05-10 11:25:01.050,101,0.4159389,-0.052960408,0.5576850250000001,-0.4370741,-0.5331327,0.015882496
2026-05-10 11:25:01.060,102,0.45825842,-0.039087646,0.51576185,-0.4370741,-0.5331327,0.015882496
2026-05-10 11:25:01.070,103,0.45825842,-0.039087646,0.51576185,-0.4370741,-0.5331327,0.015882496
2026-05-10 11:25:01.080,104,0.45825842,-0.039087646,0.51576185,-0.4370741,-0.5331327,0.015882496
2026-05-10 11:25:01.090,105,0.45825842,-0.039087646,0.51576185,-0.4370741,-0.5331327,0.015882496
2026-05-10 11:25:01.100,106,0.45825842,-0.039087646,0.51576185,-0.4370741,-0.5331327,0.015882496
2026-05-10 11:25:01.110,107,0.45825842,-0.039087646,0.51576185,-0.4370741,-0.5331327,0.015882496
2026-05-10 11:25:01.120,108,0.45825842,-0.039087646,0.51576185,-0.4370741,-0.5331327,0.015882496
2026-05-10 11:25:01.130,109,0.45825842,-0.039087646,0.51576185,-0.4370741,-0.5331327,0.015882496
2026-05-10 11:25:01.140,110,0.45825842,-0.039087646,0.51576185,-0.4370741,-0.5331327,0.015882496
2026-05-10 11:25:01.150,111,0.45825842,-0.039087646,0.51576185,-0.4370741,-0.5331327,0.015882496
2026-05-10 11:25:01.160,112,0.45825842,-0.039087646,0.51576185,-0.4370741,-0.5331327,0.015882496
2026-05-10 11:25:01.170,113,0.45825842,-0.039087646,0.51576185,-0.4370741,-0.5331327,0.015882496
2026-05-10 11:25:01.180,114,0.45825842,-0.039087646,0.51576185,-0.4370741,-0.5331327,0.015882496
2026-05-10 11:25:01.190,115,0.45825842,-0.039087646,0.51576185,-0.4370741,-0.5331327,0.015882496
2026-05-10 11:25:01.200,116,0.45825842,-0.039087646,0.51576185,-0.4370741,-0.5331327,0.015882496
2026-05-10 11:25:01.210,117,0.45825842,-0.039087646,0.51576185,-0.4370741,-0.5331327,0.015882496
2026-05-10 11:25:01.220,118,0.45825842,-0.039087646,0.51576185,-0.4370741,-0.5331327,0.015882496
2026-05-10 11:25:01.230,119,0.45825842,-0.039087646,0.51576185,-0.4370741,-0.5331327,0.015882496
2026-05-10 11:25:01.240,120,0.45825842,-0.039087646,0.51576185,-0.4370741,-0.5331327,0.015882496
2026-05-10 11:25:01.250,121,0.45825842,-0.039087646,0.51576185,-0.4370741,-0.5331327,0.015882496
2026-05-10 11:25:01.260,122,0.45825842,-0.039087646,0.51576185,-0.4370741,-0.5331327,0.015882496
2026-05-10 11:25:01.270,123,0.45825842,-0.039087646,0.51576185,-0.4370741,-0.5331327,0.015882496
2026-05-10 11:25:01.280,124,0.45825842,-0.039087646,0.51576185,-0.4370741,-0.5331327,0.015882496
2026-05-10 11:25:01.290,125,0.45825842,-0.039087646,0.51576185,-0.4370741,-0.5331327,0.015882496
2026-05-10 11:25:01.300,126,0.45825842,-0.039087646,0.51576185,-0.4370741,-0.5331327,0.015882496
2026-05-10 11:25:01.310,127,0.45825842,-0.039087646,0.51576185,-0.4370741,-0.5331327,0.015882496
2026-05-10 11:25:01.320,128,0.45825842,-0.039087646,0.51576185,-0.4370741,-0.5331327,0.015882496
2026-05-10 11:25:01.330,129,0.45825842,-0.039087646,0.51576185,-0.4370741,-0.5331327,0.015882496
2026-05-10 11:25:01.340,130,0.45825842,-0.039087646,0.51576185,-0.4370741,-0.5331327,0.015882496
2026-05-10 11:25:01.350,131,0.47313734,-0.0357490365,0.5115695124999999,-0.48407255000000005,-0.536530625,0.0217620745
2026-05-10 11:25:01.360,132,0.5177741,-0.025733208,0.4989925,-0.6250679,-0.5467244,0.03940081
2026-05-10 11:25:01.370,133,0.5177741,-0.025733208,0.4989925,-0.6250679,-0.5467244,0.03940081
2026-05-10 11:25:01.380,134,0.5177741,-0.025733208,0.4989925,-0.6250679,-0.5467244,0.03940081
2026-05-10 11:25:01.390,135,0.5177741,-0.025733208,0.4989925,-0.6250679,-0.5467244,0.03940081
2026-05-10 11:25:01.400,136,0.5177741,-0.025733207999999997,0.4989925,-0.6250679,-0.5467244,0.03940081
2026-05-10 11:25:01.410,137,0.5177741,-0.025733208,0.4989925,-0.6250679,-0.5467244,0.03940081
2026-05-10 11:25:01.420,138,0.5177741,-0.025733208,0.4989925,-0.6250679,-0.5467244,0.03940081
2026-05-10 11:25:01.430,139,0.5177741,-0.025733208,0.4989925,-0.6250679,-0.5467244,0.03940081
2026-05-10 11:25:01.440,140,0.5177741,-0.025733207999999997,0.4989925,-0.6250679,-0.5467244,0.03940081
2026-05-10 11:25:01.450,141,0.5177741,-0.025733208,0.4989925,-0.6250679,-0.5467244,0.03940081
2026-05-10 11:25:01.460,142,0.5177741,-0.025733208,0.4989925,-0.6250679,-0.5467244,0.03940081
2026-05-10 11:25:01.470,143,0.5177741,-0.025733208,0.4989925,-0.6250679,-0.5467244,0.03940081
2026-05-10 11:25:01.480,144,0.5177741,-0.025733208,0.4989925,-0.6250679,-0.5467244,0.03940081
2026-05-10 11:25:01.490,145,0.5177741,-0.025733207999999997,0.4989925,-0.6250679,-0.5467244,0.03940081
2026-05-10 11:25:01.500,146,0.586924475,-0.01077806775,0.517194775,-0.6250679,-0.5467244,0.03940081
2026-05-10 11:25:01.510,147,0.6099746,-0.005793021,0.5232622,-0.6250679,-0.5467244,0.03940081
2026-05-10 11:25:01.520,148,0.6099746,-0.005793021,0.5232622,-0.91431254,-0.6356053,-0.02443461
2026-05-10 11:25:01.530,149,0.6099746,-0.005793021,0.5232622,-0.91431254,-0.6356053,-0.02443461
2026-05-10 11:25:01.540,150,0.6099746,-0.005793021,0.5232622,-0.91431254,-0.6356053,-0.02443461
2026-05-10 11:25:01.550,151,0.6099746,-0.005793021,0.5232622,-0.91431254,-0.6356053,-0.02443461
2026-05-10 11:25:01.560,152,0.6099746,-0.005793021,0.5232622,-0.91431254,-0.6356053,-0.02443461
2026-05-10 11:25:01.570,153,0.6099746,-0.005793021,0.5232622,-0.91431254,-0.6356053,-0.02443461
2026-05-10 11:25:01.580,154,0.6099746,-0.005793021,0.5232622,-0.91431254,-0.6356053,-0.02443461
2026-05-10 11:25:01.590,155,0.6099746,-0.005793021,0.5232622,-0.91431254,-0.6356053,-0.02443461
2026-05-10 11:25:01.600,156,0.6099746,-0.005793021,0.5232622,-0.91431254,-0.6356053,-0.02443461
2026-05-10 11:25:01.610,157,0.6099746,-0.005793021,0.5232622,-0.91431254,-0.6356053,-0.02443461
2026-05-10 11:25:01.620,158,0.6099746,-0.005793021,0.5232622,-0.91431254,-0.6356053,-0.02443461
2026-05-10 11:25:01.630,159,0.6099746,-0.005793021,0.5232622,-0.9455175933333333,-0.6680829666666668,-0.04545855333333334
2026-05-10 11:25:01.640,160,0.6099746,-0.005793021,0.5232622,-1.0079277,-0.7330383,-0.08750644
2026-05-10 11:25:01.650,161,0.626042625,-0.0120128965,0.53719595,-1.0079277,-0.7330383,-0.08750644
2026-05-10 11:25:01.660,162,0.6546571125,-0.01975725125,0.559575325,-1.0079277,-0.7330383,-0.08750644
2026-05-10 11:25:01.670,163,0.6922965,-0.024330689,0.5849122,-0.98227135,-0.8097019000000001,-0.180510685
2026-05-10 11:25:01.680,164,0.6922965,-0.024330689,0.5849122,-0.9566149999999999,-0.8863655,-0.27351493
2026-05-10 11:25:01.690,165,0.6922965,-0.024330689,0.5849122,-0.956615,-0.8863655,-0.27351493
2026-05-10 11:25:01.700,166,0.82776171,-0.014375838925,0.6075049475000001,-0.89041245,-0.87972235,-0.385914135
2026-05-10 11:25:01.710,167,0.8601112,-0.0036587503,0.5846682,-0.8242099,-0.8730792,-0.49831334
2026-05-10 11:25:01.720,168,0.7675447999999999,-0.016261110766666666,0.5264941333333333,-0.5798129233333333,-0.8117381,-1.00304075
2026-05-10 11:25:01.730,169,0.7212616,-0.022562291,0.4974071,-0.56062156,-0.8014552,-1.0624474
2026-05-10 11:25:01.740,170,0.7212616,-0.022562291,0.4974071,-0.56062156,-0.8014552,-1.0624474
2026-05-10 11:25:01.750,171,0.65211123,-0.046039272,0.4425258,-0.59315014,-0.8239045,-1.072374
2026-05-10 11:25:01.760,172,0.65211123,-0.046039272,0.4425258,-0.59315014,-0.8239045,-1.072374
2026-05-10 11:25:01.770,173,0.65211123,-0.046039272,0.4425258,-0.59315014,-0.8239044999999999,-1.072374
2026-05-10 11:25:01.780,174,0.6492756825,-0.0163119273,0.396608505,-0.6940574350000001,-0.952186225,-0.96711423
2026-05-10 11:25:01.790,175,0.6483305,-0.0064028124,0.38130274,-0.779005885,-1.0248792,-0.89927
2026-05-10 11:25:01.800,176,0.6483305,-0.0064028124,0.38130274,-0.83031857,-1.0548116,-0.86651236
2026-05-10 11:25:01.810,177,0.6734133,0.0335995212,0.3548784333333333,-0.8303185699999999,-1.0548116,-0.8665123600000001
2026-05-10 11:25:01.820,178,0.6859547,0.053600688,0.34166628,-0.83031857,-1.0548116,-0.86651236
2026-05-10 11:25:01.830,179,0.6859547,0.053600688,0.34166628,-0.83031857,-1.0548116,-0.86651236
2026-05-10 11:25:01.840,180,0.6859547,0.053600688,0.34166628,-0.83031857,-1.0548116,-0.86651236
2026-05-10 11:25:01.850,181,0.6859547,0.053600688,0.34166628,-0.83031857,-1.0548116,-0.86651236
2026-05-10 11:25:01.860,182,0.7722198833333334,0.13616648533333334,0.36737916666666665,-0.8303185699999999,-1.0548116,-0.8665123600000001
2026-05-10 11:25:01.870,183,0.94475025,0.30129808,0.41880494,-0.9419542025000001,-1.090699925,-0.81833037
2026-05-10 11:25:01.880,184,0.94475025,0.30129808,0.41880494,-1.2768611,-1.1983649,-0.6737844
2026-05-10 11:25:01.890,185,0.94475025,0.30129808,0.41880494,-1.2768611,-1.1983649,-0.6737844
2026-05-10 11:25:01.900,186,0.9447502499999999,0.30129808,0.41880494,-1.2768611,-1.1983649,-0.6737844000000001
2026-05-10 11:25:01.910,187,0.94475025,0.30129808,0.41880494,-1.2768611,-1.1983649,-0.6737844
2026-05-10 11:25:01.920,188,0.94475025,0.30129808,0.41880494,-1.2768611,-1.1983649,-0.6737844
2026-05-10 11:25:01.930,189,0.94475025,0.30129808,0.41880494,-1.2768611,-1.1983649,-0.6737844
2026-05-10 11:25:01.940,190,0.94475025,0.30129808,0.41880494,-1.2768611,-1.1983649,-0.6737844
2026-05-10 11:25:01.950,191,1.4421573,0.4610635,0.55076385,-1.2768611,-1.1983649,-0.6737844000000001
2026-05-10 11:25:01.960,192,1.4421573,0.4610635,0.55076385,-1.7054594,-1.03549295,-0.8143215375
2026-05-10 11:25:01.970,193,1.4421573,0.4610635,0.55076385,-1.8483255,-0.9812023,-0.86116725
2026-05-10 11:25:01.980,194,1.4421573,0.4610635,0.55076385,-1.8483255000000003,-0.9812023,-0.8611672499999999
2026-05-10 11:25:01.990,195,1.4421573,0.4610635,0.55076385,-1.8483255,-0.9812023,-0.86116725
2026-05-10 11:25:02.000,196,1.4421573,0.4610635,0.55076385,-1.8483255,-0.9812023,-0.86116725
2026-05-10 11:25:02.010,197,1.4421573,0.4610635,0.55076385,-1.8483255,-0.9812023,-0.86116725
2026-05-10 11:25:02.020,198,1.4421573,0.4610635,0.55076385,-1.8483255,-0.9812023,-0.86116725
2026-05-10 11:25:02.030,199,1.4421573,0.4610635,0.55076385,-1.8483255000000003,-0.9812023,-0.8611672499999999
2026-05-10 11:25:02.040,200,1.4421573,0.4610635,0.55076385,-1.8483255,-0.9812023,-0.86116725
2026-05-10 11:25:02.050,201,1.4421573,0.4610635,0.55076385,-1.8483255,-0.9812023,-0.86116725
2026-05-10 11:25:02.060,202,1.4421573,0.4610635,0.55076385,-1.8483255,-0.9812023,-0.86116725
2026-05-10 11:25:02.070,203,1.4421573,0.4610635,0.55076385,-1.8483255,-0.9812023,-0.86116725
2026-05-10 11:25:02.080,204,1.4421573,0.4610635,0.55076385,-1.8483255000000003,-0.9812023,-0.8611672499999999
2026-05-10 11:25:02.090,205,1.4421573,0.4610635,0.55076385,-1.8483255,-0.9812023,-0.86116725
2026-05-10 11:25:02.100,206,1.4421573,0.4610635,0.55076385,-1.8483255,-0.9812023,-0.86116725
2026-05-10 11:25:02.110,207,1.7750121,0.504739825,0.6299300624999999,-2.214844725,-0.63816328,-1.1858803125000001
2026-05-10 11:25:02.120,208,1.8859637,0.5192986,0.6563188,-2.3370178,-0.52381694,-1.294118
2026-05-10 11:25:02.130,209,1.8859637,0.5192986,0.6563188,-2.3370178,-0.52381694,-1.294118
2026-05-10 11:25:02.140,210,2.2315936,0.6140602150000001,0.87364855,-2.8247937,0.012217315000000006,-2.01936775
2026-05-10 11:25:02.150,211,2.5772235,0.70882183,1.0909783,-3.3125696,0.54825157,-2.7446175
2026-05-10 11:25:02.160,212,2.6377149,0.78376526,1.5106369,-3.3125696,0.54825157,-2.7446175
2026-05-10 11:25:02.170,213,2.6377149,0.78376526,1.5106369,-3.4962363999999995,0.89109968,-3.2623257999999997
2026-05-10 11:25:02.180,214,2.199396525,0.9012568775,2.239459975,-3.86357,1.5767959,-4.2977424
2026-05-10 11:25:02.190,215,2.0532904,0.94042075,2.482401,-3.86357,1.5767959,-4.2977424
2026-05-10 11:25:02.200,216,2.0532904,0.94042075,2.482401,-3.8635700000000006,1.5767958999999998,-4.2977424
2026-05-10 11:25:02.210,217,2.0532904,0.94042075,2.482401,-3.86357,1.5767959,-4.2977424
2026-05-10 11:25:02.220,218,2.0532904,0.94042075,2.482401,-3.86357,1.5767959,-4.2977424
2026-05-10 11:25:02.230,219,2.0532904,0.94042075,2.482401,-3.8635700000000006,1.5767958999999998,-4.2977424
2026-05-10 11:25:02.240,220,2.0532904,0.94042075,2.482401,-3.801681725,1.841491475,-4.431445549999999
2026-05-10 11:25:02.250,221,2.0532904,0.94042075,2.482401,-3.6160169,2.6355782,-4.832555
2026-05-10 11:25:02.260,222,2.0532904,0.94042075,2.482401,-3.6160169,2.6355782,-4.832555
2026-05-10 11:25:02.270,223,2.0532904,0.94042075,2.482401,-3.6160169,2.6355782,-4.832555
2026-05-10 11:25:02.280,224,2.0532904,0.94042075,2.482401,-3.6160169,2.6355782,-4.832555
2026-05-10 11:25:02.290,225,2.05243685,0.903955195,2.7593378499999996,-3.13564765,2.8197540500000002,-4.848819349999999
2026-05-10 11:25:02.300,226,2.0515833,0.86748964,3.0362747,-2.6552784,3.0039299,-4.8650837
2026-05-10 11:25:02.310,227,2.0515833,0.86748964,3.0362747,-2.6552784,3.0039299,-4.8650837
2026-05-10 11:25:02.320,228,2.0515833,0.86748964,3.0362747,-2.6552784,3.0039299,-4.8650837
2026-05-10 11:25:02.330,229,2.0515833,0.86748964,3.0362747,-2.1944824666666665,2.9282844333333333,-4.898579233333333
2026-05-10 11:25:02.340,230,2.0515833,0.86748964,3.0362747,-1.9640845,2.8904617,-4.915327
2026-05-10 11:25:02.350,231,2.0515833,0.86748964,3.0362747,-1.9640845,2.8904617,-4.915327
2026-05-10 11:25:02.360,232,1.7691276,0.72309095,3.254336,-0.501787635,2.259781375,-5.0887744999999995
2026-05-10 11:25:02.370,233,1.7691276,0.72309095,3.254336,0.22128594,1.8709276,-5.092325
2026-05-10 11:25:02.380,234,1.7691276,0.72309095,3.254336,0.22128594,1.8709276,-5.092325
2026-05-10 11:25:02.390,235,1.7691276,0.72309095,3.254336,0.22128594,1.8709276,-5.092325
2026-05-10 11:25:02.400,236,1.7691276,0.72309095,3.254336,0.22128594,1.8709276,-5.092325
2026-05-10 11:25:02.410,237,1.7691276,0.72309095,3.254336,0.22128594,1.8709276,-5.092325
2026-05-10 11:25:02.420,238,1.7691276,0.72309095,3.254336,0.22128594,1.8709276,-5.092325
2026-05-10 11:25:02.430,239,1.4820987,0.5775337,3.5395358,1.8286251,1.1753048,-4.732526
2026-05-10 11:25:02.440,240,1.4820987,0.5775337,3.5395358,1.8286251,1.1753048,-4.732526
2026-05-10 11:25:02.450,241,1.4820987,0.5775337,3.5395358,1.8286251,1.1753048,-4.732526
2026-05-10 11:25:02.460,242,1.5058602666666667,0.5379785566666667,3.6133815333333335,1.8286251,1.1753048,-4.732526
2026-05-10 11:25:02.470,243,1.5533834,0.45886827,3.761073,3.0961704,0.86574876,-4.4658833
2026-05-10 11:25:02.480,244,1.7980318,0.24739249,3.7312543,4.779257,0.535118,-4.343099
2026-05-10 11:25:02.490,245,1.7980318,0.24739249,3.7312543,4.779257,0.535118,-4.343099
2026-05-10 11:25:02.500,246,1.9036882666666666,0.109416954,3.5144937000000005,5.862931933333333,0.15750143733333333,-4.4810528666666665
2026-05-10 11:25:02.510,247,1.9565165,0.040429186,3.4061134,6.4047694,-0.031306844,-4.5500298
2026-05-10 11:25:02.520,248,1.940845,-0.09579827,3.2391524,6.4047694,-0.031306844,-4.5500298
2026-05-10 11:25:02.530,249,1.9408450000000002,-0.09579827,3.2391524,6.4047694,-0.031306844,-4.5500298
2026-05-10 11:25:02.540,250,1.940845,-0.09579827,3.2391524,6.4047694,-0.031306844,-4.5500298
2026-05-10 11:25:02.550,251,1.940845,-0.09579827,3.2391524,6.8127511,-0.34376442349999997,-4.6418886
2026-05-10 11:25:02.560,252,1.940845,-0.09579827,3.2391524,6.948745,-0.44791695,-4.6725082
2026-05-10 11:25:02.570,253,1.92276465,-0.19107822500000002,3.2882100000000003,7.41911115,-0.974253675,-4.7561966
2026-05-10 11:25:02.580,254,1.9046843000000002,-0.28635818,3.3372676,7.8894773,-1.5005904,-4.839885
2026-05-10 11:25:02.590,255,1.9046843,-0.28635818,3.3372676,7.8894773,-1.5005904,-4.839885
2026-05-10 11:25:02.600,256,1.9046843,-0.28635818,3.3372676,7.8894773,-1.5005904,-4.839885
2026-05-10 11:25:02.610,257,1.89818995,-0.38563225,3.40663155,8.25194965,-1.77754145,-4.8867692
2026-05-10 11:25:02.620,258,1.9086478666666666,-0.53224648,3.462132833333333,8.614422,-2.0544925,-4.9336534
2026-05-10 11:25:02.630,259,1.9425524,-0.6269268,3.4344075,8.614422,-2.0544925,-4.9336534
2026-05-10 11:25:02.640,260,1.9425524,-0.6269268,3.4344075,10.135781,-2.2704334,-5.1245484
2026-05-10 11:25:02.650,261,1.9425524,-0.6269268,3.4344075,10.135781,-2.2704334,-5.1245484
2026-05-10 11:25:02.660,262,1.9425524,-0.6269268,3.4344075000000003,10.135781,-2.2704334,-5.1245484
2026-05-10 11:25:02.670,263,1.9345641,-0.65529735,3.3656688,10.135781,-2.2704334,-5.1245484
2026-05-10 11:25:02.680,264,1.9105992,-0.740409,3.1594527,10.135781,-2.2704334,-5.1245484
2026-05-10 11:25:02.690,265,1.793381925,-0.80343105,2.903202825,10.413419750000001,-2.485190725,-5.185940625000001
2026-05-10 11:25:02.700,266,1.7543095,-0.8244384,2.8177862,10.505966,-2.5567765,-5.2064047
2026-05-10 11:25:02.710,267,1.7543095,-0.8244384,2.8177862,10.636424,-2.804062375,-5.192545675
2026-05-10 11:25:02.720,268,1.6161308,-0.75275735,2.2994023500000003,10.67991,-2.886491,-5.187926
2026-05-10 11:25:02.730,269,1.32440655,-0.3438005355,1.7394612500000002,9.6373155,-3.2266665,-5.4302867500000005
2026-05-10 11:25:02.740,270,1.170861,-0.006524771000000001,1.697904,8.594721,-3.566842,-5.6726475
2026-05-10 11:25:02.750,271,1.170861,-0.006524771,1.697904,8.594721,-3.566842,-5.6726475
2026-05-10 11:25:02.760,272,1.170861,-0.006524771,1.697904,8.594721,-3.566842,-5.6726475
2026-05-10 11:25:02.770,273,1.2634883625,-0.354578625,1.0097540175,6.4758971999999995,-2.966590625,-5.6452345
2026-05-10 11:25:02.780,274,0.8280970499999999,-0.10573788,0.74540937,5.5347447,-2.7597365000000003,-5.458081
2026-05-10 11:25:02.790,275,0.9801943375,-0.2899864425,1.0706265275,5.1405838500000005,-2.45835085,-5.433799075
2026-05-10 11:25:02.800,276,1.4364862,-0.84273213,2.046278,8.078234325,-3.15404995,-5.417420275
2026-05-10 11:25:02.810,277,1.4364862,-0.84273213,2.046278,9.451612,-3.6873353,-5.4362426
2026-05-10 11:25:02.820,278,1.4364862,-0.84273213,2.046278,9.451612,-3.6873352999999995,-5.4362426
2026-05-10 11:25:02.830,279,1.4364862,-0.84273213,2.046278,9.451612,-3.6873353,-5.4362426
2026-05-10 11:25:02.840,280,1.28579145,-0.63633288425,1.797071375,9.451612,-3.6873353,-5.4362426
2026-05-10 11:25:02.850,281,0.885021175,-0.039773662749999994,1.236428875,6.871622800000001,-3.0953305,-5.316971049999999
2026-05-10 11:25:02.860,282,0.8084007999999999,-0.16677801,1.7105876,5.152343,-1.9408716000000001,-5.191438
2026-05-10 11:25:02.870,283,0.8084008,-0.16677801,1.7105876,5.637217,-2.5158484,-5.20671
2026-05-10 11:25:02.880,284,0.842152775,-0.1733332725,1.6166187,5.637217,-2.5158484,-5.20671
2026-05-10 11:25:02.890,285,0.9434087,-0.19299906,1.334712,5.637217,-2.5158484,-5.20671
2026-05-10 11:25:02.900,286,0.9434087,-0.19299906,1.334712,5.637217,-2.5158484,-5.20671
2026-05-10 11:25:02.910,287,0.9434087,-0.19299906,1.334712,5.637217,-2.5158484,-5.20671
2026-05-10 11:25:02.920,288,1.005988625,-0.21301548250000002,0.7700449,5.3669095,-2.6437865499999997,-5.4455202
2026-05-10 11:25:02.930,289,1.0079247,-0.21629310999999998,0.6737588,5.276807,-2.6864326,-5.5251236
2026-05-10 11:25:02.940,290,1.0079247,-0.21629311,0.6737588,5.1371478999999995,-2.60385125,-5.53714995
2026-05-10 11:25:02.950,291,1.0079247,-0.21629311,0.6737588,4.7181706,-2.3561072,-5.573229
2026-05-10 11:25:02.960,292,1.0079247,-0.21629311,0.6737588,4.7181706,-2.3561072,-5.573229
2026-05-10 11:25:02.970,293,1.0079247,-0.21629311,0.6737588,4.7181706,-2.3561072,-5.573229
2026-05-10 11:25:02.980,294,1.0079247,-0.21629310999999998,0.6737588,4.7181706,-2.3561072,-5.573229
2026-05-10 11:25:02.990,295,0.99170425,-0.233428255,0.6215606499999999,4.7181706,-2.3561072,-5.573229
2026-05-10 11:25:03.000,296,0.9754838,-0.2505634,0.5693625,4.7181706,-2.3561072,-5.573229
2026-05-10 11:25:03.010,297,0.9754838,-0.2505634,0.5693625,4.56049095,-2.254627225,-5.55784285
2026-05-10 11:25:03.020,298,0.9422958825000001,-0.268582745,0.51867356,4.087452,-1.9501873,-5.5116844
2026-05-10 11:25:03.030,299,0.84273213,-0.32264078,0.36660674,4.087452,-1.9501873000000003,-5.5116844
2026-05-10 11:25:03.040,300,0.84273213,-0.32264078,0.36660674,4.087452,-1.9501873,-5.5116844
2026-05-10 11:25:03.050,301,0.84273213,-0.32264078,0.36660674,4.087452,-1.9501873,-5.5116844
2026-05-10 11:25:03.060,302,0.83445419,-0.3235249775,0.40941412,3.6778668999999997,-1.7591773750000002,-5.3816846
2026-05-10 11:25:03.070,303,0.9226351333333334,-0.37859934,0.49966329,3.1198415999999995,-1.528843,-5.190522
2026-05-10 11:25:03.080,304,1.027666725,-0.47862549,0.4077829225,3.009122275,-1.71057545,-5.273867
2026-05-10 11:25:03.090,305,1.0491467,-0.58296084,0.22794013,2.8736627,-1.9402608,-5.6019397
2026-05-10 11:25:03.100,306,0.9683289266666666,-0.6435335066666666,0.14342300333333333,2.7157541,-1.8776470666666665,-5.7353119
2026-05-10 11:25:03.110,307,0.818294715,-0.7346922625,0.05488125,2.403143825,-1.668578425,-5.90416525
2026-05-10 11:25:03.120,308,0.38078441,-0.9773741250000001,-0.036221624325,2.134324925,-1.5257123250000002,-5.782221225000001
2026-05-10 11:25:03.130,309,0.036496026249999994,-1.231550575,-0.22376305999999999,2.189684625,-1.678352275,-5.304486575
2026-05-10 11:25:03.140,310,-0.059942525,-1.3030639,-0.28178474,2.2293527,-1.7385225,-5.162575
2026-05-10 11:25:03.150,311,-0.059942525,-1.3030639,-0.28178474,2.2293527,-1.7385225,-5.162575
2026-05-10 11:25:03.160,312,-0.52420743,-1.64314465,-0.76412992,2.27890925,-1.7402787000000002,-4.65280795
2026-05-10 11:25:03.170,313,-0.80403064,-1.8628525666666667,-1.1317936333333332,0.8084292433333333,-1.6474526666666665,-3.8776198666666666
2026-05-10 11:25:03.180,314,-0.98624658,-1.9558458,-1.2680313,-0.18127427,-1.474476,-3.5196528
2026-05-10 11:25:03.190,315,-1.1467133,-2.0368261,-1.3811172,-1.1807261675,-1.1562915,-3.181997025
2026-05-10 11:25:03.200,316,-1.1467133,-2.0368261,-1.3811172,-1.5138768,-1.05023,-3.0694451
2026-05-10 11:25:03.210,317,-1.321235675,-2.129621275,-1.2305139,-1.5138768,-1.05023,-3.0694451
2026-05-10 11:25:03.220,318,-1.3794098000000001,-2.160553,-1.1803128,-1.5138768,-1.05023,-3.0694451
2026-05-10 11:25:03.230,319,-1.3794098,-2.160553,-1.1803128,-1.5138768,-1.05023,-3.0694451
2026-05-10 11:25:03.240,320,-1.3794098,-2.160553,-1.1803128,-1.7286341,-0.92297915,-2.964223575
2026-05-10 11:25:03.250,321,-1.3794098,-2.160553,-1.1803128,-2.372906,-0.5412266,-2.648559
2026-05-10 11:25:03.260,322,-1.5617578666666667,-2.224743666666667,-0.9468641999999999,-2.372906,-0.5412266,-2.648559
2026-05-10 11:25:03.270,323,-1.926454,-2.353125,-0.479967,-2.372906,-0.5412266,-2.648559
2026-05-10 11:25:03.280,324,-1.926454,-2.353125,-0.479967,-2.372906,-0.5412266,-2.648559
2026-05-10 11:25:03.290,325,-1.926454,-2.353125,-0.479967,-2.372906,-0.5412266,-2.648559
2026-05-10 11:25:03.300,326,-2.0489408,-2.3638167333333335,-0.24747377999999998,-2.7463483333333336,0.10242174666666666,-1.4633786000000002
2026-05-10 11:25:03.310,327,-2.1101842,-2.3691626,-0.13122717,-2.9330695,0.42424592,-0.8707884
2026-05-10 11:25:03.320,328,-2.1101842,-2.3691626,-0.13122717,-2.9330695,0.42424592,-0.8707884
2026-05-10 11:25:03.330,329,-2.06673645,-2.3266905500000004,-0.04329521,-2.6920068500000003,0.44822238000000003,-0.322689565
2026-05-10 11:25:03.340,330,-2.01305945,-2.279218275,0.0469996925,-2.4224626,0.47376418,0.2757293025
2026-05-10 11:25:03.350,331,-1.9823717,-2.2642176,0.05408852,-2.3370178,0.4784602,0.42668940000000005
2026-05-10 11:25:03.360,332,-1.80031845,-2.1924145,0.0224098435,-2.0479258,0.6049093,0.93660915
2026-05-10 11:25:03.370,333,-1.6182652,-2.1206114,-0.009268833,-1.7588338,0.7313584,1.4465289
2026-05-10 11:25:03.380,334,-1.6182652,-2.1206114,-0.009268833,-1.7588338,0.7313584,1.4465289
2026-05-10 11:25:03.390,335,-0.89200324,-1.7790061,-0.5804607,-1.6064229,1.2760975,2.0097466
2026-05-10 11:25:03.400,336,-0.89200324,-1.7790061,-0.5804607,-1.95469245,1.6716327500000001,2.2879194500000004
2026-05-10 11:25:03.410,337,-0.89200324,-1.7790061,-0.5804607,-2.302962,2.067168,2.5660923
2026-05-10 11:25:03.420,338,-0.89200324,-1.7790061,-0.5804607,-2.302962,2.067168,2.5660923
2026-05-10 11:25:03.430,339,-0.8920032399999999,-1.7790061,-0.5804607,-2.302962,2.067168,2.5660923
2026-05-10 11:25:03.440,340,-0.89200324,-1.7790061,-0.5804607,-2.6018278500000003,2.0851122,2.6836838
2026-05-10 11:25:03.450,341,-0.8759658,-1.7009529,-0.5694845,-2.9006937,2.1030564,2.8012753
2026-05-10 11:25:03.460,342,-0.8759658,-1.7009529,-0.5694845,-2.9006937,2.1030564,2.8012753
2026-05-10 11:25:03.470,343,-0.75065355,-1.6221067500000002,-0.4840526375,-2.9006937,2.1030564,2.8012753
2026-05-10 11:25:03.480,344,-0.7088828,-1.5958247,-0.45557535,-2.9006937,2.1030564,2.8012753
2026-05-10 11:25:03.490,345,-0.7088828,-1.5958247000000003,-0.45557535,-2.9006937,2.1030564,2.8012753
2026-05-10 11:25:03.500,346,-0.62207898,-1.5476512,-0.45023968999999997,-3.4094298000000003,2.2948299,2.97628815
2026-05-10 11:25:03.510,347,-0.53527516,-1.4994777,-0.44490403,-4.3154573,2.7359128,3.2705724
2026-05-10 11:25:03.520,348,-0.53527516,-1.4994777,-0.44490403,-4.3154573,2.7359128,3.2705724
2026-05-10 11:25:03.530,349,-0.11090078066666668,-1.2994050666666668,-0.062239398,-6.550308066666666,4.332459833333333,3.7530542333333337
2026-05-10 11:25:03.540,350,-0.09802401050000001,-1.31620485,0.24748393400000002,-7.1475816,4.744132,3.8690677
2026-05-10 11:25:03.550,351,-0.112445585,-1.3383098,0.4735032,-7.25937,4.319428,4.302324
2026-05-10 11:25:03.560,352,-0.1484233,-1.3269677,1.0561591,-7.25937,4.319428,4.302324
2026-05-10 11:25:03.570,353,-0.1484233,-1.3269677,1.0561591,-6.914434666666666,3.8166350666666666,4.410650666666666
2026-05-10 11:25:03.580,354,0.06799178,-1.2416579,1.5874097,-5.06056,1.3810136,4.916091
2026-05-10 11:25:03.590,355,0.11600271,-1.2183028333333334,1.5677134333333334,-3.9330559,0.20937407,5.286886
2026-05-10 11:25:03.600,356,0.21202457,-1.1715927,1.5283209,-3.9330559,0.20937407,5.286886
2026-05-10 11:25:03.610,357,0.48496732,-1.0340848,1.2113512,-3.0508137,-0.57864213,5.7303743
2026-05-10 11:25:03.620,358,0.588357495,-0.99972302,1.0166447,-3.0508137,-0.57864213,5.7303743
2026-05-10 11:25:03.630,359,0.6917476700000001,-0.96536124,0.8219382,-3.0508137000000004,-0.57864213,5.7303743
2026-05-10 11:25:03.640,360,0.69174767,-0.96536124,0.8219382,-3.081204275,-0.5415320625,5.831854225000001
2026-05-10 11:25:03.650,361,0.76772773,-0.96725154,0.6610752,-3.29481625,-0.32753831699999997,6.19039375
2026-05-10 11:25:03.660,362,0.76772773,-0.96725154,0.6610752,-3.662137,-0.019547688,6.352693
2026-05-10 11:25:03.670,363,0.76772773,-0.96725154,0.6610752,-3.662137,-0.019547688,6.352693
2026-05-10 11:25:03.680,364,0.7677277300000002,-0.96725154,0.6610752,-3.662137,-0.019547688,6.3526929999999995
2026-05-10 11:25:03.690,365,0.76772773,-0.96725154,0.6610752,-3.662137,-0.019547688,6.352693
2026-05-10 11:25:03.700,366,0.76772773,-0.96725154,0.6610752,-3.662137,-0.019547688,6.352693
2026-05-10 11:25:03.710,367,0.9274321375,-1.0125286349999998,0.624350475,-4.585574325,0.650647856,6.544695600000001
2026-05-10 11:25:03.720,368,0.98066694,-1.027621,0.6121089,-6.2212043,1.8040378,6.7825894
2026-05-10 11:25:03.730,369,1.4447794,-1.0298162,0.7994369,-6.2212043,1.8040378,6.7825894
2026-05-10 11:25:03.740,370,1.4447794,-1.0298162,0.7994369,-6.2212043,1.8040378,6.7825894
2026-05-10 11:25:03.750,371,1.4447794,-1.0298162,0.7994369,-6.2212043,1.8040378,6.7825894
2026-05-10 11:25:03.760,372,1.4447794,-1.0298162,0.7994369,-6.33612335,1.8663842,6.7339874250000005
2026-05-10 11:25:03.770,373,1.5097831666666668,-1.0144697666666667,0.8209828566666667,-6.898959433333334,2.110437533333333,6.458932666666667
2026-05-10 11:25:03.780,374,1.6276253999999999,-0.96493435,0.8885427175,-7.3351173,2.2244658,6.200435
2026-05-10 11:25:03.790,375,1.6235703,-0.9586535,0.8966987,-7.3351173,2.2244658,6.200435
2026-05-10 11:25:03.800,376,1.6235703,-0.9586535,0.8966987,-7.3351173,2.2244658,6.200435
2026-05-10 11:25:03.810,377,1.5783847500000001,-0.9635318150000001,0.9162425,-7.49371315,2.1956024000000003,6.1046055
2026-05-10 11:25:03.820,378,1.4627073,-0.992435915,1.0444816499999998,-7.74607675,1.9016616750000002,5.968497
2026-05-10 11:25:03.830,379,1.6639994,-0.9451161,1.7825431,-6.6388836,-1.6227635000000002,5.998697
2026-05-10 11:25:03.840,380,1.705145125,-0.92110555,1.7653622,-6.42813505,-1.734895475,5.98980125
2026-05-10 11:25:03.850,381,1.8285823,-0.8490739,1.7138195,-5.7958894,-2.0712914,5.963114
2026-05-10 11:25:03.860,382,1.81675235,-0.823859015,1.65175795,-5.6816958,-2.0070741749999996,5.944291625
2026-05-10 11:25:03.870,383,1.7812624999999997,-0.74821436,1.4655733,-5.339115,-1.8144225,5.8878245
2026-05-10 11:25:03.880,384,1.7812625,-0.74821436,1.4655733,-5.339115,-1.8144225,5.8878245
2026-05-10 11:25:03.890,385,1.6202774,-0.73986024,1.0092661,-5.5897226,-0.5047274,5.918368
2026-05-10 11:25:03.900,386,1.6202774,-0.73986024,1.0092661,-5.5897226,-0.5047274,5.918368
2026-05-10 11:25:03.910,387,1.6202774,-0.73986024,1.0092661,-5.7339249500000005,-0.322498665,5.93237975
2026-05-10 11:25:03.920,388,1.6202774,-0.73986024,1.0092661,-6.166532,0.22418754,5.974415
2026-05-10 11:25:03.930,389,1.6202774,-0.73986024,1.0092661,-6.166532,0.22418754,5.974415
2026-05-10 11:25:03.940,390,1.6815005,-0.7696028125000001,0.714523425,-6.7943105,0.456469035,5.8973315
2026-05-10 11:25:03.950,391,1.8150449,-0.7834603,0.5605815,-7.00357,0.5338962,5.871637
2026-05-10 11:25:03.960,392,1.8702514,-0.79474148,0.5362508,-7.2288266666666665,0.4804455,5.796296833333333
2026-05-10 11:25:03.970,393,1.9806644,-0.81730384,0.4875894,-7.861072249999999,0.26481008575,5.57009825
2026-05-10 11:25:03.980,394,2.0626813999999998,-0.82023082,0.46819805000000003,-8.406269,-0.061391957,5.3435435
2026-05-10 11:25:03.990,395,2.1446984,-0.8231578,0.4488067,-9.333563,-0.7107417,4.889671
2026-05-10 11:25:04.000,396,2.2485255333333334,-0.8730387333333334,0.5795867,-9.333563,-0.7107417000000001,4.889671
2026-05-10 11:25:04.010,397,2.299554875,-0.9027813075,0.770563275,-9.333563,-0.7107417,4.889671
2026-05-10 11:25:04.020,398,2.2969022,-0.91718763,1.147323,-9.945803,-1.1001683,4.401131
2026-05-10 11:25:04.030,399,2.2051287,-0.848769,1.6708902,-9.825156499999999,-1.1340713500000001,3.9981129
2026-05-10 11:25:04.040,400,2.1491701333333335,-0.8087057,1.8442946333333332,-9.557139,-1.1061243,3.8945713000000004
2026-05-10 11:25:04.050,401,2.0067939,-0.690878725,2.271778975,-8.940013,-1.1125383,3.8652499
2026-05-10 11:25:04.060,402,2.2082996,-0.39337662,2.6333244,-8.940013,-1.1125383,3.8652499
2026-05-10 11:25:04.070,403,2.2082996,-0.39337662,2.6333244,-8.940013,-1.1125383,3.8652499
2026-05-10 11:25:04.080,404,2.2082996,-0.39337662,2.6333244,-8.579195233333333,-1.1940379333333333,3.870594933333333
2026-05-10 11:25:04.090,405,2.7586975,-0.17622979,2.6146648,-7.8575597,-1.3570372,3.881285
2026-05-10 11:25:04.100,406,2.7586975,-0.17622979,2.6146648,-7.23768435,-1.6278032,3.7002398000000003
2026-05-10 11:25:04.110,407,2.7586975,-0.17622979,2.6146648,-6.617809,-1.8985692,3.5191946
2026-05-10 11:25:04.120,408,2.7586975,-0.17622978999999997,2.6146648,-6.617809,-1.8985692,3.5191946
2026-05-10 11:25:04.130,409,2.8312932249999996,0.07047667500000002,2.447642825,-5.6422188,-2.567962925,2.43830675
2026-05-10 11:25:04.140,410,2.4684367,0.39301074,2.2411063,-4.4774895,-3.34234915,0.9352347
2026-05-10 11:25:04.150,411,2.2848895666666666,0.4180528466666667,2.2605790333333333,-4.5023823,-3.2820263,0.9584476
2026-05-10 11:25:04.160,412,1.993668125,0.507178975,2.5636557,-4.774828,-2.6794076,1.6378825
2026-05-10 11:25:04.170,413,1.9271855,0.532714,2.6614358,-4.774828,-2.6794076,1.6378825
2026-05-10 11:25:04.180,414,1.9271855,0.532714,2.6614358,-4.774828,-2.6794076,1.6378825
2026-05-10 11:25:04.190,415,2.064876475,0.6424765,2.925064,-4.6787695000000005,-2.6282476999999997,1.824425475
2026-05-10 11:25:04.200,416,2.4779494,0.971764,3.7159485999999995,-3.9998438333333333,-2.583909166666667,2.5995371333333335
2026-05-10 11:25:04.210,417,3.5844777,1.744675,4.0535293,-0.89552844,-3.1311426,2.9503264
2026-05-10 11:25:04.220,418,3.5844777,1.744675,4.0535293,-0.89552844,-3.1311426,2.9503264
2026-05-10 11:25:04.230,419,3.5844777,1.744675,4.0535293,-0.89552844,-3.1311426,2.9503264
2026-05-10 11:25:04.240,420,3.5844776999999994,1.744675,4.0535293,-0.89552844,-3.1311426,2.9503264
2026-05-10 11:25:04.250,421,3.699774025,1.8737374500000001,4.0167131000000005,-0.26492463,-2.8316659,2.29586065
2026-05-10 11:25:04.260,422,4.1731095,2.5013654,3.5812454,1.6268868,-1.9332358,0.3324634
2026-05-10 11:25:04.270,423,4.0429187,2.4603875,3.3473904,2.023032925,-1.4476743,-0.7288386099999999
2026-05-10 11:25:04.280,424,3.9219158000000003,2.4142872,3.208195266666667,2.1733057,-1.0080804,-1.5060883
2026-05-10 11:25:04.290,425,3.67991,2.3220866,2.929805,2.1733057,-1.0080804,-1.5060883
2026-05-10 11:25:04.300,426,3.67991,2.3220866,2.929805,2.1733057,-1.0080804,-1.5060883
2026-05-10 11:25:04.310,427,3.67991,2.3220866,2.929805,2.1733057,-1.0080804,-1.5060883
2026-05-10 11:25:04.320,428,3.67991,2.3220866,2.929805,2.1733057,-1.0080804,-1.5060883
2026-05-10 11:25:04.330,429,3.67991,2.3220866,2.929805,2.1733057,-1.0080804,-1.5060883
2026-05-10 11:25:04.340,430,3.4084918,2.1303072,2.4874012,2.00379065,-0.55122954,-1.8352683
2026-05-10 11:25:04.350,431,3.24224725,1.947324075,2.3279255500000002,1.404646425,0.59444823,-2.429716625
2026-05-10 11:25:04.360,432,3.1868324,1.8863297,2.274767,1.2614367,0.8240572,-2.5181394
2026-05-10 11:25:04.370,433,3.148415475,1.8207313250000001,2.2864902000000003,1.1452196,1.0009027000000001,-2.583616475
2026-05-10 11:25:04.380,434,3.0331647,1.6239362,2.3216598,0.7965683,1.5314392,-2.7800477
2026-05-10 11:25:04.390,435,3.0331647,1.6239362,2.3216598,0.7965683,1.5314392,-2.7800477
2026-05-10 11:25:04.400,436,3.0331647,1.6239362,2.3216598,0.7965683,1.5314392000000001,-2.7800476999999995
2026-05-10 11:25:04.410,437,3.0331647,1.6239362,2.3216598,0.815390575,1.5775976999999999,-2.8456011749999996
2026-05-10 11:25:04.420,438,3.0331647,1.6239362,2.3216598,0.8718574,1.7160732,-3.0422616
2026-05-10 11:25:04.430,439,3.0331647,1.6239362,2.3216598,0.8718574,1.7160732,-3.0422616
2026-05-10 11:25:04.440,440,2.5986170166666667,0.9375242066666666,1.9066051283333334,1.9756908333333332,0.7184284333333334,-4.0554324
2026-05-10 11:25:04.450,441,2.1640693333333334,0.2511122133333332,1.4915504566666669,3.0795242666666667,-0.2792163333333333,-5.0686032
2026-05-10 11:25:04.460,442,1.7295216500000001,-0.43529978,1.076495785,4.1833577,-1.2768611,-6.081774
2026-05-10 11:25:04.470,443,1.747602,-0.4281347,1.1751906,4.1833577,-1.2768611,-6.081774
2026-05-10 11:25:04.480,444,1.747602,-0.4281347,1.1751906,4.3393576,-1.5086081,-6.27060785
2026-05-10 11:25:04.490,445,1.73308895,-0.449889025,1.17616625,4.4953575,-1.7403551,-6.4594417
2026-05-10 11:25:04.500,446,1.6895498,-0.515152,1.1790932,4.4953575,-1.7403550999999997,-6.4594417
2026-05-10 11:25:04.510,447,1.6895498,-0.515152,1.1790932,4.6497536,-1.6575829,-6.6518645
2026-05-10 11:25:04.520,448,1.6895498,-0.515152,1.1790932,4.7299294,-1.1688906,-6.591083
2026-05-10 11:25:04.530,449,1.5741162,-0.54283655,1.0899417,4.7299294,-1.1688906,-6.591083
2026-05-10 11:25:04.540,450,1.51484445,-0.47063720499999995,0.958196175,4.69801185,-1.1978304,-6.3751423
2026-05-10 11:25:04.550,451,1.6585419000000001,-0.364045635,0.9000372375,5.06640185,-2.6549348999999998,-6.3811749
2026-05-10 11:25:04.560,452,1.6958509666666668,-0.4588682433333333,0.7565888466666667,5.237609566666666,-3.3829208666666664,-6.755711666666667
2026-05-10 11:25:04.570,453,1.5947882,-0.54850763,0.5459465,5.3131533,-3.886783,-7.356803
2026-05-10 11:25:04.580,454,1.5947882,-0.54850763,0.5459465,5.2204163249999995,-3.83295045,-7.3945239
2026-05-10 11:25:04.590,455,1.4861842666666665,-0.6014985199999999,0.4829753333333333,4.9422054,-3.6714527999999995,-7.5076866
2026-05-10 11:25:04.600,456,0.9556959999999999,-0.79803437,0.20473755,4.40445285,-3.361629525,-7.301061375000001
2026-05-10 11:25:04.610,457,0.8512692,-0.82821906,0.1539724,3.845969375,-3.130760675,-6.891323825
2026-05-10 11:25:04.620,458,0.7562433166666667,-0.8407197733333334,0.10195716943333334,3.7195585,-3.0882291999999993,-6.777703
2026-05-10 11:25:04.630,459,0.56619155,-0.8657212,-0.0020732917,3.057075,-2.9868257,-6.093839
2026-05-10 11:25:04.640,460,0.3536944325,-0.8785726250000001,-0.1645980125,2.89817375,-2.948570275,-5.9474985
2026-05-10 11:25:04.650,461,0.31971377,-0.919139,-0.18092519,2.42147,-2.833804,-5.508477
2026-05-10 11:25:04.660,462,0.2733391225,-0.9778924,-0.10264318475,1.927318025,-2.567390175,-5.000962725
2026-05-10 11:25:04.670,463,0.23995303,-1.0352434,-0.04231954400000001,1.6557503,-2.3623686,-4.6998444
2026-05-10 11:25:04.680,464,0.134184665,-1.1540307749999998,0.08864846675,1.60978265,-2.210454075,-4.4616451999999995
2026-05-10 11:25:04.690,465,-0.07591906,-1.3964839,0.32453114,1.5949692,-1.8952094,-3.973373
2026-05-10 11:25:04.700,466,-0.07591906,-1.3964839,0.32453114,1.5949692000000002,-1.8952094,-3.973373
2026-05-10 11:25:04.710,467,-0.07591906,-1.3964839,0.32453114,1.5949692,-1.8952094,-3.973373
2026-05-10 11:25:04.720,468,-0.07591906,-1.3964839,0.32453114,1.91323,-1.6653714,-3.4391713
2026-05-10 11:25:04.730,469,-0.44179407,-1.7126609,0.34556895,1.91323,-1.6653714,-3.4391713
2026-05-10 11:25:04.740,470,-0.44179407,-1.7126609000000002,0.34556894999999993,1.9710585333333335,-1.6913331333333332,-3.336240633333334
2026-05-10 11:25:04.750,471,-0.5907051975,-1.829054825,0.3538011375,1.9999728,-1.704314,-3.2847753
2026-05-10 11:25:04.760,472,-0.64034224,-1.8678528,0.3565452,1.9999728,-1.704314,-3.2847753
2026-05-10 11:25:04.770,473,-0.88035625,-1.9975556,0.35471582,2.2050707,-1.8945986,-2.7899742
2026-05-10 11:25:04.780,474,-1.0250598,-2.0854266,0.27849188,2.2050707,-1.8945986,-2.7899742
2026-05-10 11:25:04.790,475,-1.0250598,-2.0854266,0.27849188,2.209843125,-1.891429725,-2.7004824750000003
2026-05-10 11:25:04.800,476,-1.0250598,-2.0854266,0.27849188,2.00279805,-1.56602945,-2.0583868
2026-05-10 11:25:04.810,477,-1.05071685,-2.142777375,0.13287361250000002,1.7814357,-1.2501358,-1.6847663
2026-05-10 11:25:04.820,478,-1.0199782533333333,-2.1793140333333336,0.054434071,0.9721410866666668,-0.3837761333333334,-1.3395256433333333
2026-05-10 11:25:04.830,479,-1.1307976800000001,-2.146116075,0.0631896615,-1.1071168949999999,1.7860172749999998,-0.403171065
2026-05-10 11:25:04.840,480,-1.4634543249999998,-1.962721225,0.065506871,-1.70622295,2.5270733,0.28199068
2026-05-10 11:25:04.850,481,-1.4057528,-1.8818781,0.03506302,-1.8248580666666665,2.5420650000000005,0.8750645
2026-05-10 11:25:04.860,482,-1.26623245,-1.7857139499999999,0.03292875,-1.8634444,2.538298,1.0566442
2026-05-10 11:25:04.870,483,-1.00627825,-1.5918611999999999,0.0464051465,-2.199573,2.8425088,1.8298469
2026-05-10 11:25:04.880,484,-0.8858444,-1.4941726,0.062015813,-2.199573,2.8425088,1.8298469
2026-05-10 11:25:04.890,485,-0.8858444,-1.4941726,0.062015813,-2.199573,2.8425087999999996,1.8298469
2026-05-10 11:25:04.900,486,-0.8858444,-1.4941726,0.062015813,-2.781804,3.6152532500000003,2.5432612
2026-05-10 11:25:04.910,487,-0.04443856874999999,-1.09032275,0.180117215,-3.4639495,4.7776152,2.7448848
2026-05-10 11:25:04.920,488,0.09544764075,-0.8920490249999999,0.16200640249999998,-4.5211663,6.4279823,2.4769058
2026-05-10 11:25:04.930,489,-0.046466127,-0.799071,0.11201873,-4.5211663,6.4279823,2.4769058
2026-05-10 11:25:04.940,490,-0.046466127,-0.799071,0.11201873,-4.5211663,6.4279823,2.4769058
2026-05-10 11:25:04.950,491,-0.046466127,-0.799071,0.11201873,-4.5211663,6.4279823,2.4769058
2026-05-10 11:25:04.960,492,-0.2691620513333333,-0.7730735433333334,0.10892911999999999,-4.8070002999999994,6.3938247,2.751540633333333
2026-05-10 11:25:04.970,493,-0.66189838,-0.698943195,0.118360565,-5.3786683,6.3255095,3.3008103
2026-05-10 11:25:04.980,494,-0.60924286,-0.67680776,0.13397123,-5.507561,5.4699926,3.972915
2026-05-10 11:25:04.990,495,-0.60924286,-0.67680776,0.13397123,-5.50557575,5.168416125,4.10215115
2026-05-10 11:25:05.000,496,-0.06347931,-0.515152,0.20714624,-5.49962,4.2636867,4.4898596
2026-05-10 11:25:05.010,497,0.012394017500000007,-0.492711675,0.20641449,-5.5103865,3.80897395,4.57820605
2026-05-10 11:25:05.020,498,0.6008887333333334,-0.30034274,0.14238636000000002,-5.793802333333333,2.648304533333333,4.6666541666666665
2026-05-10 11:25:05.030,499,0.8995647,-0.23458686,0.036465544,-6.08589775,2.210645,4.644522925
2026-05-10 11:25:05.040,500,0.8525039999999999,-0.2953678425,-0.0138880055,-6.55321,1.9566014,4.5779767
2026-05-10 11:25:05.050,501,0.8368170999999999,-0.31562817,-0.030672521999999997,-7.2002178,1.9669861333333334,4.607196633333333
2026-05-10 11:25:05.060,502,0.828844075,-0.3532218175,0.046847245999999995,-7.968660525000001,2.044718725,4.73668745
2026-05-10 11:25:05.070,503,1.0857036,-0.59232114,0.7650903625000001,-10.115775,2.40665635,5.31624575
2026-05-10 11:25:05.080,504,1.3212966,-0.6810154,1.1611043,-10.386541,2.454762,5.394551
2026-05-10 11:25:05.090,505,1.3316173,-0.564346975,1.68631795,-10.14983175,1.581835595,4.78639645
2026-05-10 11:25:05.100,506,1.299527,-0.4681371,2.0915246,-8.80016225,0.16821702009999998,4.2827001
2026-05-10 11:25:05.110,507,1.2753793,-0.4119143,2.192323,-8.579907,0.0013744468,4.244292
2026-05-10 11:25:05.120,508,1.2753793,-0.4119143,2.192323,-8.579907,0.0013744468,4.244292
2026-05-10 11:25:05.130,509,1.2753793,-0.4119143,2.192323,-8.579907,0.0013744468,4.244292
2026-05-10 11:25:05.140,510,1.2876158,-0.34894313666666665,2.1613862000000004,-8.579907,0.0013744468,4.244292
2026-05-10 11:25:05.150,511,1.3120888,-0.22300081,2.0995126,-7.2069495,-0.7535404882999999,4.098371475
2026-05-10 11:25:05.160,512,1.1391518,-0.047319833,1.7215028,-4.5614834,-1.8425223,3.8281398
2026-05-10 11:25:05.170,513,1.1391518,-0.047319833,1.7215028000000003,-4.5614834,-1.8425223,3.8281398
2026-05-10 11:25:05.180,514,1.1538630250000002,-0.03571854665,1.6294547750000001,-4.319198975,-1.9884427249999999,3.841158875
2026-05-10 11:25:05.190,515,1.202204275,0.02222690785,1.2660953,-3.5416439,-2.4761803999999996,3.8792998250000004
2026-05-10 11:25:05.200,516,1.2036068,0.029940773,1.2370235,-3.3895385,-2.6261096,3.8765510000000005
2026-05-10 11:25:05.210,517,1.2252543999999999,0.0920480515,1.0415547,-3.3569336,-2.7346146,3.8766272500000003
2026-05-10 11:25:05.220,518,1.246902,0.15415533,0.8460859,-3.3243287,-2.8431196,3.8767035
2026-05-10 11:25:05.230,519,1.106863425,0.1728606975,0.622124725,-3.8935023500000003,-2.42918205,3.92045675
2026-05-10 11:25:05.240,520,1.023108515,0.1696745325,0.4928946375,-4.935180325,-1.715118725,4.040835475
2026-05-10 11:25:05.250,521,1.06070218,0.062473155,0.564941495,-7.0515995,-0.48426338500000005,4.13128185
2026-05-10 11:25:05.260,522,1.1315905,-0.01603752,0.74687284,-8.147568,0.11728613,4.0637813
2026-05-10 11:25:05.270,523,1.0646962,-0.04847844,1.188545,-8.2020875,0.16367371,3.991660975
2026-05-10 11:25:05.280,524,1.38148305,0.1455877565,1.6455533,-8.089688,0.04520403,3.6989417
2026-05-10 11:25:05.290,525,1.5330772,0.23806266,1.8094957,-7.484932000000001,-0.4331034566666667,3.4788267000000004
2026-05-10 11:25:05.300,526,1.651163375,0.45612417,1.956257325,-6.0752075,-1.421559825,2.96006215
2026-05-10 11:25:05.310,527,1.4187565500000001,0.720301165,1.747053125,-4.4990988000000005,-1.3474923875,2.55631825
2026-05-10 11:25:05.320,528,1.3773974,0.834256,1.6610115,-4.6094365,-0.64766985,2.9106202
2026-05-10 11:25:05.330,529,1.5184422666666666,0.9057845666666667,1.7085142333333334,-4.2852706666666665,-1.06626525,3.0189977666666667
2026-05-10 11:25:05.340,530,2.04298515,1.2563843000000001,1.8938909000000002,-4.5260534,-0.63591075,3.1083877
2026-05-10 11:25:05.350,531,2.2854383,1.4639269,1.9842621,-4.5260534,-0.63591075,3.1083877
2026-05-10 11:25:05.360,532,2.6635091500000003,1.78361015,2.28019405,-4.06110855,-1.3509285249999998,2.6154958500000003
2026-05-10 11:25:05.370,533,3.04158,2.1032934,2.576126,-3.5961637,-2.0659463,2.122604
2026-05-10 11:25:05.380,534,2.7260127,2.424105,2.8712652,-3.0277536,-1.7191275,0.8388707
2026-05-10 11:25:05.390,535,2.5691133,2.4742906,2.9764543,-3.0277536,-1.7191275,0.8388707
2026-05-10 11:25:05.400,536,2.5691133,2.4742906,2.9764543,-2.9925270000000004,-1.5668693666666667,0.7617489666666666
2026-05-10 11:25:05.410,537,2.5691133,2.4742906,2.9764543,-2.9220738,-1.2623531,0.6075055
2026-05-10 11:25:05.420,538,2.5811262,2.540636,3.32928,-2.9220738,-1.2623531,0.6075055
2026-05-10 11:25:05.430,539,2.5811262,2.540636,3.3292799999999994,-2.6244807333333333,-0.7354817666666666,0.43127088
2026-05-10 11:25:05.440,540,2.7571883,2.50474975,3.5563205499999997,-2.0037907749999997,-0.376445695,0.1697060125
2026-05-10 11:25:05.450,541,3.083746875,2.171422375,3.6059421,1.05523155,0.05280166,-1.210925805
2026-05-10 11:25:05.460,542,2.741165975,1.343310075,2.2536528000000002,3.4584137,0.71016902,-2.814828775
2026-05-10 11:25:05.470,543,2.6670458,1.2317792,2.0450583,3.3987016000000003,0.8150469333333333,-2.9041550666666667
2026-05-10 11:25:05.480,544,2.6670458,1.2317792,2.0450583,3.1308371,0.897361025,-3.0482938
2026-05-10 11:25:05.490,545,2.6670458,1.2317792,2.0450583,3.0068314,0.91889405,-3.1143436
2026-05-10 11:25:05.500,546,2.699806875,1.122382575,1.92595075,2.7845528,1.0244973750000002,-3.2398765000000003
2026-05-10 11:25:05.510,547,2.7231466999999996,1.0532322,1.8651088,2.5622742,1.1301007,-3.3654093999999994
2026-05-10 11:25:05.520,548,2.6894252,0.9976192,1.9052331,2.5622742,1.1301007,-3.3654094
2026-05-10 11:25:05.530,549,2.53049825,0.8773378000000001,1.9787739750000002,2.39340825,1.31591835,-3.7824394999999997
2026-05-10 11:25:05.540,550,2.4775226,0.837244,2.0032876,2.3872614,1.3391694,-3.8649445
2026-05-10 11:25:05.550,551,2.290560533333333,0.7036996166666668,1.983692966666667,2.5546384666666664,1.2546662666666668,-4.0452515
2026-05-10 11:25:05.560,552,2.0878658,0.58424145,1.9523699,2.92501375,0.9541333,-4.2933517750000005
2026-05-10 11:25:05.570,553,2.0878658,0.58424145,1.9523699,3.020576,0.8680395,-4.3460007
2026-05-10 11:25:05.580,554,1.7235762,0.4730764,1.8829757,3.1345532666666664,0.8037459333333333,-4.3663628999999995
2026-05-10 11:25:05.590,555,1.7235762,0.4730764,1.8829757,3.39102755,0.687834265,-4.405521975
2026-05-10 11:25:05.600,556,1.67089015,0.45063605500000004,1.8717555,3.4765868,0.72586066,-4.400826
2026-05-10 11:25:05.610,557,1.6182041,0.42819571,1.8605353,3.57611965,0.79664467,-4.371657150000001
2026-05-10 11:25:05.620,558,1.6182041,0.42819571,1.8605352999999998,3.8747182,1.0089967,-4.2841506
2026-05-10 11:25:05.630,559,1.2916454499999999,0.1688055785,1.8233380750000001,5.150395700000001,0.8525388,-4.1215842
2026-05-10 11:25:05.640,560,1.201929875,-0.021373198,1.51976855,6.608492825,0.2942079575,-4.190917275
2026-05-10 11:25:05.650,561,1.2735499,-0.18827317500000001,0.685863215,7.76684615,-0.91935225,-4.7790278
2026-05-10 11:25:05.660,562,1.3120888,-0.16824152,0.36788732,6.6304461,-1.090890775,-5.359579
2026-05-10 11:25:05.670,563,1.3073120999999999,-0.14907373666666668,0.38870153,5.9930463,-1.1377366,-5.516265999999999
2026-05-10 11:25:05.680,564,1.435846,-0.1098692155,0.54090045,5.157267975,-1.3377567,-5.554941325
2026-05-10 11:25:05.690,565,1.8305794,-0.08308411674999999,0.5993794925,4.454696674999999,-1.751312525,-5.94013
2026-05-10 11:25:05.700,566,1.7156083000000002,-0.3699606066666667,1.2922298333333333,3.7225109999999995,-1.6055066,-7.1607661
2026-05-10 11:25:05.710,567,1.4794155,-0.49655336,1.3117229,3.8234055,-1.5231925,-7.2387533
2026-05-10 11:25:05.720,568,1.4794155,-0.49655336,1.3117229,4.63662,-2.119397,-7.0716815
2026-05-10 11:25:05.730,569,1.4794155,-0.49655336,1.3117229,4.63662,-2.119397,-7.0716815
2026-05-10 11:25:05.740,570,1.46499395,-0.5329884,1.23318175,4.63662,-2.119397,-7.0716815
2026-05-10 11:25:05.750,571,1.4505723999999998,-0.56942344,1.1546406,4.63662,-2.119397,-7.0716815
2026-05-10 11:25:05.760,572,1.4505723999999998,-0.56942344,1.1546406,4.745914,-2.2309817333333335,-7.050606666666667
2026-05-10 11:25:05.770,573,1.4505724,-0.56942344,1.1546406,4.855208,-2.342566466666667,-7.029531833333333
2026-05-10 11:25:05.780,574,1.4505724,-0.56942344,1.1546406,4.964502,-2.4541512,-7.008457
2026-05-10 11:25:05.790,575,1.516247,-0.5975349,0.8125474,4.4095306,-2.7705793,-7.0092206
2026-05-10 11:25:05.800,576,1.516247,-0.5975349,0.8125474,4.4095306,-2.7705793,-7.0092206
2026-05-10 11:25:05.810,577,1.3587836,-0.6219570375,0.5372721850000001,3.835928275,-2.605760275,-6.8222957
2026-05-10 11:25:05.820,578,1.14028,-0.6601909375,0.391089895,3.8880426750000003,-2.5640305000000003,-6.8106894
2026-05-10 11:25:05.830,579,0.9486986725,-0.74303113,0.425863275,3.088382,-2.1641428,-6.464329
2026-05-10 11:25:05.840,580,0.9032844299999999,-0.76730084,0.4435015,3.0883820000000006,-2.1641428,-6.464329
2026-05-10 11:25:05.850,581,0.807577615,-0.81437677,0.479753625,3.02863175,-2.0959168,-6.387512625
2026-05-10 11:25:05.860,582,0.58256448,-0.9465796,0.538872925,2.98102235,-2.0024926,-5.8848467499999995
2026-05-10 11:25:05.870,583,0.45325816,-1.0317065,0.5617401,3.1126637,-2.1137464,-5.61263
2026-05-10 11:25:05.880,584,0.035032527499999994,-1.323171725,0.48092746,3.213494675,-2.2497021,-5.159558825
2026-05-10 11:25:05.890,585,-0.61460906,-1.7957146,0.3816686,3.2725577,-2.3893993,-4.3553166
2026-05-10 11:25:05.900,586,-0.81318768,-1.8408696500000001,0.378558665,3.2725577,-2.3893993,-4.3553166
2026-05-10 11:25:05.910,587,-1.0117663,-1.8860247,0.37544873,3.2725577,-2.3893993,-4.3553166
2026-05-10 11:25:05.920,588,-1.0117663,-1.8860247,0.37544873,3.039589175,-2.031355975,-3.9135464250000003
2026-05-10 11:25:05.930,589,-1.0117663,-1.8860247,0.37544873,2.961933,-1.9120082,-3.7662897
2026-05-10 11:25:05.940,590,-1.0117663,-1.8860247,0.37544873,2.961933,-1.9120082,-3.7662897
2026-05-10 11:25:05.950,591,-1.1228703,-2.1334171,0.3869738,2.4163793,-0.9185886333333334,-2.5218044
2026-05-10 11:25:05.960,592,-1.1228703,-2.1334171,0.3869738,2.2749004,-0.5423719850000001,-2.0967949
2026-05-10 11:25:05.970,593,-1.110140925,-2.22801105,0.220775075,2.1536054,-0.061544672499999994,-1.6534594999999999
2026-05-10 11:25:05.980,594,-1.117992,-2.3790412,-0.21489060000000001,2.0120375,0.23808473,-1.4202617
2026-05-10 11:25:05.990,595,-1.117992,-2.3790412,-0.2148906,1.79899815,0.436921365,-1.2810608
2026-05-10 11:25:06.000,596,-1.1623849,-2.37742535,-0.321695595,0.8332202,1.201572,-0.83062404
2026-05-10 11:25:06.010,597,-1.182691,-2.3910542,-0.30135906,0.052381694,1.8245018,-0.56398135
2026-05-10 11:25:06.020,598,-1.182691,-2.3910542,-0.30135906,0.052381694,1.8245018,-0.56398135
2026-05-10 11:25:06.030,599,-1.21334825,-2.39329515,-0.286403915,-0.009544772,1.8567631,-0.5214116775000001
2026-05-10 11:25:06.040,600,-1.30532,-2.400018,-0.24153848,-0.19532417,1.953547,-0.39370266
2026-05-10 11:25:06.050,601,-1.30532,-2.400018,-0.24153848,-0.25508715,1.879326866666667,-0.08165232666666666
2026-05-10 11:25:06.060,602,-1.49466035,-2.2836544500000002,-0.1539571525,-0.303409135,1.8260671,0.40126212000000006
2026-05-10 11:25:06.070,603,-1.1631776,-1.9384211,-0.181672185,-1.3516157574999998,2.68601265,2.22099145
2026-05-10 11:25:06.080,604,-0.90575405,-1.7450714500000002,-0.2362333,-1.9776763,3.1858149,2.7743971
2026-05-10 11:25:06.090,605,-0.7820578,-1.6367418999999999,-0.26367393,-2.262594,3.362762266666667,2.880127733333333
2026-05-10 11:25:06.100,606,-0.44587966,-1.44413915,-0.07509584999999999,-3.3619733,4.073097,3.1682525999999998
2026-05-10 11:25:06.110,607,-0.10970152,-1.2515364,0.11348223,-3.8915172,4.429537,3.2449162
2026-05-10 11:25:06.120,608,-0.10970152,-1.2515364,0.11348223,-4.512156399999999,4.861622333333333,3.2650747333333334
2026-05-10 11:25:06.130,609,-0.10970152,-1.2515364,0.11348223,-4.822476,5.077665,3.275154
2026-05-10 11:25:06.140,610,-0.10970152,-1.2515364,0.11348223,-4.822476,5.077665,3.275154
2026-05-10 11:25:06.150,611,-0.2993010025,-1.174992325,0.63787257,-5.2476377,5.3398786,3.3324227
2026-05-10 11:25:06.160,612,-0.33611718,-1.1552503,0.7326037,-5.652896066666667,5.409262666666667,3.8855102
2026-05-10 11:25:06.170,613,-0.39227899,-1.086664025,1.069696525,-5.4503687,5.20178485,4.193971675
2026-05-10 11:25:06.180,614,-0.2514628375,-0.8814996125,1.52941855,-4.1195225,4.255554725,5.62641255
2026-05-10 11:25:06.190,615,0.0631591725,-0.7092487075,1.38753525,-3.448487,3.8734965,6.368881
2026-05-10 11:25:06.200,616,0.1507405,-0.66430706,1.3312972,-3.448487,3.8734965,6.368880999999999
2026-05-10 11:25:06.210,617,0.30806675,-0.5929766825,1.2282881250000002,-3.3190598749999998,3.670651125,6.67320625
2026-05-10 11:25:06.220,618,1.379028675,-0.12090645250000001,0.6354638825000001,-4.019073375,3.5674531,6.803358875
2026-05-10 11:25:06.230,619,1.86283735,0.13560242249999999,0.583189505,-5.40898275,3.6120463000000003,6.56695415
2026-05-10 11:25:06.240,620,1.9717004000000002,0.1501917,0.7798626,-5.9896865,3.673591,6.4493628
2026-05-10 11:25:06.250,621,1.9717004,0.1501917,0.7798626,-6.7625837,3.8189769,6.232047
2026-05-10 11:25:06.260,622,1.433452475,-0.028355309999999998,1.088340975,-7.56216825,3.883308525,6.08017075
2026-05-10 11:25:06.270,623,1.2540365,-0.08787098,1.1911671,-7.997448000000001,3.8314995999999995,6.0869665
2026-05-10 11:25:06.280,624,1.2540365,-0.08787098,1.1911671,-8.004740250000001,3.75178165,6.116135375
2026-05-10 11:25:06.290,625,1.3209307000000001,-0.1388648125,1.23571235,-7.892341,3.083914975,6.217768250000001
2026-05-10 11:25:06.300,626,1.5536272000000002,-0.068784502,1.4141678999999998,-7.6162677,2.4181101,6.176153
2026-05-10 11:25:06.310,627,1.7158521,0.043905000666666666,1.5864137999999999,-6.9600458,2.0722585666666666,5.8534125
2026-05-10 11:25:06.320,628,1.7091851,0.09317617,1.6472304,-5.647602,1.3805555,5.2079315
2026-05-10 11:25:06.330,629,1.5385349,0.49277264249999997,1.060214315,-3.931337825,0.76239801675,3.9892172749999997
2026-05-10 11:25:06.340,630,1.3701409,0.72083473,0.37392426000000006,-4.013944599999999,1.0222320333333332,3.0906217666666667
2026-05-10 11:25:06.350,631,1.2198120125,0.6694902725,0.34713916,-4.4650813,1.1669053,3.064596325
2026-05-10 11:25:06.360,632,0.76882535,0.5154569,0.26678386,-5.157688,1.3034338,3.1178563
2026-05-10 11:25:06.370,633,0.7581387374999999,0.5113408,0.301907865,-5.234313375,1.2727378,3.148552275
2026-05-10 11:25:06.380,634,0.7260789,0.4989925,0.40727988,-5.4641895,1.1806498,3.2406402
2026-05-10 11:25:06.390,635,0.95340925,0.54210484,0.6356468,-5.4620514,0.8857546,3.3438764
2026-05-10 11:25:06.400,636,0.95340925,0.54210484,0.6356468,-5.4620514,0.8857546,3.3438764
2026-05-10 11:25:06.410,637,0.95340925,0.54210484,0.6356468,-5.4620514,0.8857546,3.3438764
2026-05-10 11:25:06.420,638,1.107198725,0.72513377,0.8901739,-3.8870883,0.081397794,1.619251
2026-05-10 11:25:06.430,639,1.0551835,0.9020039,0.87803906,-3.0561588,-0.7695374999999999,2.0390682
2026-05-10 11:25:06.440,640,1.37148245,1.0624705749999999,0.9038332525,-3.768122275,-0.500260465,2.163799275
2026-05-10 11:25:06.450,641,2.4925845,1.7579075,1.3762999,-5.9040127,0.30757064,2.5379925
2026-05-10 11:25:06.460,642,2.298223533333333,2.0405254333333334,2.454553666666667,-5.310760533333333,0.012166406666666666,2.0535252666666666
2026-05-10 11:25:06.470,643,2.4612412,2.4541066,2.979381,-2.339461,-0.8875872,1.8849775
2026-05-10 11:25:06.480,644,2.54944755,2.4833461249999997,2.97067625,-2.108744875,-0.88957251,1.821142075
2026-05-10 11:25:06.490,645,2.8140666,2.5710647,2.944562,-1.4165965,-0.89552844,1.6296358
2026-05-10 11:25:06.500,646,2.8140666,2.5710647,2.944562,-1.4165965,-0.89552844,1.6296358
2026-05-10 11:25:06.510,647,2.688144625,1.600489725,1.74961425,2.77890235,-0.08930086500000001,-1.3673454999999999
2026-05-10 11:25:06.520,648,2.4364228,1.2023873,1.5416144,2.7805060000000004,0.3483459,-2.593123
2026-05-10 11:25:06.530,649,2.4364228,1.2023873,1.5416144,2.780506,0.3483459,-2.593123
2026-05-10 11:25:06.540,650,2.4364228,1.2023873,1.5416144,3.2187254999999997,0.07074582499999998,-2.7949375749999996
2026-05-10 11:25:06.550,651,2.4364228,1.2023873,1.5416144,4.533384,-0.7620544,-3.4003813
2026-05-10 11:25:06.560,652,1.955419,0.116104335,0.44276974,8.355109,-2.2154555,-4.3154573
2026-05-10 11:25:06.570,653,1.9131401333333333,0.015326098333333335,0.3095912333333333,8.032573,-2.1293235,-5.116302
2026-05-10 11:25:06.580,654,1.8920007,-0.03506302,0.24300198,7.6853722499999995,-1.9004018,-5.4259343
2026-05-10 11:25:06.590,655,1.1345479,-0.2056522425,0.2790864075,5.89652915,-1.2209287,-6.1541238
2026-05-10 11:25:06.600,656,0.9120654,-0.18092519000000004,0.31660384,5.663942333333334,-1.3407473333333335,-6.074087633333334
2026-05-10 11:25:06.610,657,1.4499627,0.069973592,0.7262009,4.461302,-2.2499695,-5.329799
2026-05-10 11:25:06.620,658,1.6946112,0.12921485,1.1754954,3.6818758999999996,-2.833422175,-5.875225625000001
2026-05-10 11:25:06.630,659,1.78717755,0.09468540125,1.1951154,3.4220672,-3.0279064,-6.0570345
2026-05-10 11:25:06.640,660,1.818033,0.083175585,1.2016554,3.4897587,-2.8389963,-6.161263375000001
2026-05-10 11:25:06.650,661,1.6006014666666666,0.011951917133333335,1.2715172666666668,4.040517266666666,-2.8344656666666666,-6.516914266666667
2026-05-10 11:25:06.660,662,1.533687,0.021830542,1.3595306,4.432590975,-3.3619733750000003,-6.6401818
2026-05-10 11:25:06.670,663,1.533687,0.021830542,1.3595306,5.087286,-4.101197,-6.945538
2026-05-10 11:25:06.680,664,1.4767731333333334,-0.05063303533333333,1.2270228333333335,5.087286,-4.101197,-6.945538
2026-05-10 11:25:06.690,665,1.25827466,-0.2287633525,0.812760805,4.856607925,-4.007810875,-6.869637925
2026-05-10 11:25:06.700,666,0.94426244,-0.32837284,0.36502132,4.1645737,-3.7276525,-6.6419377
2026-05-10 11:25:06.710,667,0.826313465,-0.37666831,0.2625305575,3.77965225,-3.4816265,-6.48120385
2026-05-10 11:25:06.720,668,0.78699714,-0.3927668,0.22836697000000003,3.3947308,-3.2356005,-6.32047
2026-05-10 11:25:06.730,669,0.710270105,-0.4161828,0.22836697,3.3947308,-3.2356005,-6.32047
2026-05-10 11:25:06.740,670,0.480089,-0.4864308,0.22836697000000003,2.678186,-2.8851166,-5.874691000000001
2026-05-10 11:25:06.750,671,0.30026143,-0.65305637,0.158088485,2.35931435,-2.9223793999999996,-5.1275265
2026-05-10 11:25:06.760,672,0.1187416875,-0.91275136,0.047014938,2.0404427,-2.9596422,-4.380362
2026-05-10 11:25:06.770,673,-0.7718743,-2.0309722,-0.58064365,0.75533485,-1.5066991,-3.542713
2026-05-10 11:25:06.780,674,-1.5388701999999999,-2.4521756333333333,-0.3029851666666667,-0.14462234613333333,-0.6647231866666666,-1.7979291533333335
2026-05-10 11:25:06.790,675,-1.549069025,-2.4082808250000003,-0.22060738749999997,-0.011186470050000001,0.09968557999999998,-0.6764187125000001
2026-05-10 11:25:06.800,676,-1.08577474,-2.1305713333333336,-0.19478778666666666,-1.9523252266666666,1.7254906666666667,1.23043528
2026-05-10 11:25:06.810,677,-0.90230876,-2.045546,-0.069028415,-2.9642235,2.1826979,1.8664223500000001
2026-05-10 11:25:06.820,678,-0.83417978,-1.945723175,0.20548455875,-3.264463775,2.471446225,2.48293805
2026-05-10 11:25:06.830,679,-0.7988881,-1.8898662,0.3407516,-3.3060026,2.5245533,2.6422975
2026-05-10 11:25:06.840,680,-0.8081112,-1.8264174249999998,0.4129357,-3.2308662,2.541848425,3.274008625
2026-05-10 11:25:06.850,681,-0.1348859,-1.170861,0.6481476,-3.598607,2.86518705,5.814826350000001
2026-05-10 11:25:06.860,682,0.5704448499999999,-0.87381621,0.977023515,-4.9511389999999995,3.2076534,7.01914715
2026-05-10 11:25:06.870,683,1.9546059,-0.20047916666666668,1.8671211666666665,-5.710521,3.2786665,7.5777836
2026-05-10 11:25:06.880,684,1.3495909,0.0331116865,1.41316175,-2.8977921,1.51998545,5.7269380000000005
2026-05-10 11:25:06.890,685,1.2653177,0.08622454,1.121102,-2.7021625,1.251052,5.9675426
2026-05-10 11:25:06.900,686,1.4350836999999999,0.10415241600000001,0.9949157999999999,-2.9702305,1.2694798,6.0675208666666665
2026-05-10 11:25:06.910,687,1.63726015,0.139642292,0.8483727,-3.28156815,1.4052955,6.04894025
2026-05-10 11:25:06.920,688,1.6907694,0.23428197,0.6830276,-5.28211355,2.6103034999999997,4.599471675
2026-05-10 11:25:06.930,689,1.3411554666666667,0.26351131333333333,0.8464315333333333,-5.649332866666666,2.4939083333333336,4.081903400000001
2026-05-10 11:25:06.940,690,1.0469513,0.2856264,1.19135,-5.700442,2.1873558,3.8249328
2026-05-10 11:25:06.950,691,1.093509,0.4546302,1.6028984,-4.9411364,1.8486309,3.8713584
2026-05-10 11:25:06.960,692,1.233745825,0.59715376,1.645355125,-4.412623375000001,1.581453725,3.83554645
2026-05-10 11:25:06.970,693,1.4128873000000002,0.7357746400000001,1.5314308,-2.8270843000000005,0.7799222,3.7281105999999995
2026-05-10 11:25:06.980,694,1.3500178,1.0212791,0.5810705,-2.4734315,1.14384515,3.209295
2026-05-10 11:25:06.990,695,1.355612675,1.2742512000000001,0.5770153425,-3.5732180000000002,1.8456148250000002,2.96384175
2026-05-10 11:25:07.000,696,1.373068,1.3248944,0.6637582,-3.9134064,2.0592776,2.7090346000000003
2026-05-10 11:25:07.010,697,1.395264375,1.38192515,0.7069771899999999,-3.9924626,2.1120665,2.6079364
2026-05-10 11:25:07.020,698,1.4618535,1.5530174,0.83663416,-3.7967183749999998,1.9588157000000002,2.3852761
2026-05-10 11:25:07.030,699,1.4904324666666666,1.5874096333333334,0.8540335733333334,-3.7314703,1.9077320999999998,2.311056
2026-05-10 11:25:07.040,700,1.5475904,1.6561941,0.8888324,-3.7314703,1.9077321,2.311056
2026-05-10 11:25:07.050,701,1.5475904,1.6561941,0.8888324,-3.7314703,1.9077321,2.311056
2026-05-10 11:25:07.060,702,1.5475904,1.6561941,0.8888324,-3.7314703,1.9077321,2.311056
2026-05-10 11:25:07.070,703,1.5475904,1.6561941,0.8888324,-3.7314703,1.9077321,2.311056
2026-05-10 11:25:07.080,704,1.7999831333333336,2.0050763333333332,0.6937600066666666,-2.6917267666666667,1.2659164,1.4924965
2026-05-10 11:25:07.090,705,1.788275,2.08378,0.5219207,-2.51867375,0.988723525,1.11914336
2026-05-10 11:25:07.100,706,1.4583371333333333,2.1282134666666668,0.25133580666666666,-2.8177686333333334,0.7609853666666666,0.8616254466666667
2026-05-10 11:25:07.110,707,1.2552867,2.1682971,0.1216534425,-3.0753246499999998,0.8031350675,0.933096675
2026-05-10 11:25:07.120,708,1.1410422,2.2218978,0.13848369,-3.4993415,0.90576047,1.1209377
2026-05-10 11:25:07.130,709,1.6361726666666667,2.8183554666666666,0.8798277333333333,-3.7269908,0.7473427533333332,1.4183272999999998
2026-05-10 11:25:07.140,710,1.89916565,3.07450865,1.1654948,-3.5932622,0.6849326874999999,1.3535247
2026-05-10 11:25:07.150,711,2.1025007,3.2428112,1.3383706999999998,-2.8901562666666667,0.6319910166666666,0.74489926
2026-05-10 11:25:07.160,712,2.1025007,3.2428112,1.3383707,-2.6984973,0.6224717,0.59498274
2026-05-10 11:25:07.170,713,2.1526866,3.58946245,1.9441683749999998,-2.6984973,0.6224717,0.59498274
2026-05-10 11:25:07.180,714,2.51008545,3.77351285,2.231868,-0.44696247499999997,0.42462769499999997,0.004619667500000008
2026-05-10 11:25:07.190,715,2.7633522999999998,3.7933716000000004,1.7209134333333331,1.7417804,-0.03838269833333333,-0.91599246
2026-05-10 11:25:07.200,716,2.8037002,3.67646445,1.3561767,2.4446826,-0.28725937,-1.3750577
2026-05-10 11:25:07.210,717,2.7891872,3.5777698,1.2217176,2.4749205,-0.405690865,-1.6651422999999999
2026-05-10 11:25:07.220,718,2.7760309000000003,3.5568996999999998,1.219659575,2.5051584,-0.52412236,-1.9552269
2026-05-10 11:25:07.230,719,2.5647837333333334,3.302326933333333,1.3346511,2.4200954333333335,-0.6024149266666666,-2.2114339333333333
2026-05-10 11:25:07.240,720,2.2212272,2.918402,1.5769823,2.2832615,-0.8660542,-2.9265027
2026-05-10 11:25:07.250,721,1.9095626999999997,2.4434352,1.8247405,2.8449521,-1.1174761666666668,-3.3262630666666664
2026-05-10 11:25:07.260,722,1.80998365,2.35559475,1.9640780000000002,3.1903201,-1.3128258000000002,-3.4451272
2026-05-10 11:25:07.270,723,1.7104046,2.2677543,2.1034155,3.7858373999999997,-1.777503375,-3.48330625
2026-05-10 11:25:07.280,724,1.5622659333333333,1.9296044333333333,2.6721885000000003,6.109365199999999,-3.462740533333333,-3.473481666666667
2026-05-10 11:25:07.290,725,1.483364,1.2890081,1.687476515,8.448953575,-4.17041515,-4.0555724
2026-05-10 11:25:07.300,726,1.43147075,0.8989548525,0.397492715,9.435119,-4.1938953,-4.586376
2026-05-10 11:25:07.310,727,1.21705275,0.7830334800000001,-0.126531765,7.861301,-3.2520175,-4.82049025
2026-05-10 11:25:07.320,728,0.9297290266666667,0.61038115,-0.39866145666666664,4.592485,-1.5868752,-5.06224
2026-05-10 11:25:07.330,729,0.91456556,0.54667825,-0.30507877,4.17060615,-1.4705816999999999,-5.035744
2026-05-10 11:25:07.340,730,1.019800415,0.4624812625,-0.05916503575,3.1931454,-1.3733778,-4.994892500000001
2026-05-10 11:25:07.350,731,1.0894335,0.35306940000000003,0.1632615563333333,2.4534893666666666,-1.4873551333333335,-5.0225848
2026-05-10 11:25:07.360,732,1.1067109,0.3123963,0.23348923,2.28875935,-1.70324505,-5.10431365
2026-05-10 11:25:07.370,733,1.0435365,0.04317325,0.614731,2.2160664,-1.8716911,-5.1650186
2026-05-10 11:25:07.380,734,0.93568468,-0.05904816333333333,0.8470616333333334,2.686992566666667,-2.524349733333333,-5.1537684666666665
2026-05-10 11:25:07.390,735,0.9282554249999999,-0.146563425,1.0241756,4.00070925,-3.06001485,-5.03795825
2026-05-10 11:25:07.400,736,0.89197275,-0.096667227,0.8250176250000001,4.1232641,-2.63252385,-4.97022855
2026-05-10 11:25:07.410,737,0.8812099,-0.078663126,0.7782771,4.112803,-2.5773933,-4.9550333
2026-05-10 11:25:07.420,738,0.99829,0.045124583,0.5527152,3.8066067999999995,-2.514016,-4.7876563
2026-05-10 11:25:07.430,739,0.99829,0.045124583,0.5527152,3.8066068,-2.514016,-4.7876563
2026-05-10 11:25:07.440,740,1.0792245999999999,0.07995893225,0.5189327349999999,3.4230597,-2.5592962999999997,-4.819039650000001
2026-05-10 11:25:07.450,741,1.257675,0.22249266,0.6705879333333332,2.6994643333333332,-3.0842076666666665,-5.001815666666666
2026-05-10 11:25:07.460,742,1.2018993500000001,0.22617175,0.867520155,2.5379924,-3.4196999999999997,-5.066822
2026-05-10 11:25:07.470,743,1.208683275,0.214158855,0.8878414125,2.59545195,-3.428213975,-4.98672205
2026-05-10 11:25:07.480,744,1.2394626,0.19934091,0.8700507,2.6135106,-3.19917765,-4.95793485
2026-05-10 11:25:07.490,745,1.2394626,0.19934091,0.8700507,2.6152668,-2.9991956,-4.9522843
2026-05-10 11:25:07.500,746,1.2422676,0.13116619666666665,0.7711425333333333,2.5926647,-2.451555,-5.0029864
2026-05-10 11:25:07.510,747,1.0616320625,-0.03215126900000001,0.5288723,2.459114375,-2.2531764,-4.997717725
2026-05-10 11:25:07.520,748,0.77406955,-0.275199,0.29337075,2.1992676,-2.249053,-4.8902817
2026-05-10 11:25:07.530,749,0.77406955,-0.275199,0.29337075,2.208086925,-2.4567091,-4.782502425000001
2026-05-10 11:25:07.540,750,0.59049176,-0.39523644999999996,0.47466184,2.3992495750000002,-2.7795896,-4.547968325
2026-05-10 11:25:07.550,751,0.41673166,-0.64851344,0.85425717,2.9639182,-3.540575,-3.9521453
2026-05-10 11:25:07.560,752,0.41673166,-0.64851344,0.85425717,2.9639182,-3.540575,-3.9521453
2026-05-10 11:25:07.570,753,0.3333121225,-0.993640325,0.7810822000000001,3.5262196,-2.6719246,-3.6796994
2026-05-10 11:25:07.580,754,-0.112872445,-1.5521789750000001,0.71926455,3.875596325,-2.31395755,-3.36972355
2026-05-10 11:25:07.590,755,-0.65979457,-1.9918234000000001,0.5557031,4.5898377,-2.9158633999999997,-3.0353894999999995
2026-05-10 11:25:07.600,756,-0.933591,-2.136466,0.09098092,4.583169,-3.2151365,-2.3976462
2026-05-10 11:25:07.610,757,-0.9744318,-2.148981975,0.03957548250000001,4.4254513,-3.085747575,-2.30868895
2026-05-10 11:25:07.620,758,-1.228394775,-2.229108675,-0.2006214525,2.67463525,-1.7401641749999999,-1.475659525
2026-05-10 11:25:07.630,759,-1.3730069,-2.3075125,-0.11104306000000001,1.7887661000000001,-1.0811296866666666,-1.0579167566666665
2026-05-10 11:25:07.640,760,-1.3730069,-2.3075125,-0.11104306,0.42050436550000003,-0.049174650000000014,-0.3114649165
2026-05-10 11:25:07.650,761,-1.3704153,-2.32388555,-0.0546068424,-0.027794369,0.30298916,-0.023060163
2026-05-10 11:25:07.660,762,-1.347974975,-2.329465275,0.0119061829,-0.19246073675,0.417335495,0.09319512775
2026-05-10 11:25:07.670,763,-1.2884288,-2.2970853,0.042136606,-0.8818348933333334,0.8774061,0.5660684666666667
2026-05-10 11:25:07.680,764,-1.1047748,-2.21218695,0.32099434250000003,-2.0450622249999997,1.522161675,1.1685851999999999
2026-05-10 11:25:07.690,765,-1.0284899,-2.06794065,0.70580339,-1.8359173,1.5080736,1.1368584
2026-05-10 11:25:07.700,766,-1.0569316000000002,-1.9953602333333336,0.7381325133333334,-1.5434528666666667,1.5806647333333332,1.1125383666666666
2026-05-10 11:25:07.710,767,-1.1145772,-1.8868175,0.71967614,-1.1307116,1.725847,1.1058189
2026-05-10 11:25:07.720,768,-1.13671265,-1.825945025,0.63041788,-1.07684091,1.8096882499999998,1.17431215
2026-05-10 11:25:07.730,769,-1.0175390666666668,-1.4104684666666667,0.24003433333333332,-1.1928161800000001,2.3783019999999997,1.7108299000000002
2026-05-10 11:25:07.740,770,-0.9247491,-1.2940389,0.17872995,-1.5818355,2.7791314,2.1137464
2026-05-10 11:25:07.750,771,-0.36047835,-0.9822829,0.341757745,-2.7683649,4.3187409500000005,2.7059803000000002
2026-05-10 11:25:07.760,772,-0.0009756699999999979,-0.8443785500000001,0.36910692,-3.40221395,5.312007899999999,2.983924
2026-05-10 11:25:07.770,773,0.19299906,-0.7418116,0.34142238,-3.7658314999999996,5.9209642,2.6303856
2026-05-10 11:25:07.780,774,-0.21027142,-0.74172011,0.28176950500000003,-3.959934,5.6059106,3.2840879
2026-05-10 11:25:07.790,775,-0.3434651695,-0.5697283425,0.45150503499999994,-4.08691765,4.9887075,4.35608005
2026-05-10 11:25:07.800,776,0.024513626,-0.4410623,0.556313,-3.9167153,4.505080333333333,5.018207333333334
2026-05-10 11:25:07.810,777,0.5374704065,-0.19469123300000002,0.559377125,-3.8625391749999998,4.2212315,5.35896825
2026-05-10 11:25:07.820,778,0.708456,-0.112567544,0.5603985,-4.2498277,4.2482240000000004,5.10717735
2026-05-10 11:25:07.830,779,1.4747202,0.436123,0.3755097,-4.492493875,4.20218,4.962211275
2026-05-10 11:25:07.840,780,1.4791107,0.5009032,0.4328301333333333,-4.8806605,4.01033,4.7707047
2026-05-10 11:25:07.850,781,1.2967829499999999,0.6679810500000001,0.89685107,-4.939494375000001,3.073033975,4.638796025
2026-05-10 11:25:07.860,782,1.22711425,0.7054375,1.05588478,-4.686252675,2.4176138,4.972099425
2026-05-10 11:25:07.870,783,1.2521462,0.7329492666666667,1.1962893333333333,-4.264603,1.9190332,5.2861223
2026-05-10 11:25:07.880,784,1.361298975,0.6437875625,0.218351157,-5.980409,2.7646615,4.5704175
2026-05-10 11:25:07.890,785,1.0239622,0.3745797875,0.129016669,-7.2153877,2.93711635,4.1951935
2026-05-10 11:25:07.900,786,0.6113771,0.12390967000000001,0.49344342999999996,-7.7269874,2.8313603,4.05416
2026-05-10 11:25:07.910,787,0.6113771,0.12390967,0.49344343,-8.13199,2.473546,4.0894375
2026-05-10 11:25:07.920,788,0.5950499300000001,0.07232129500000001,0.7638250075,-8.089687999999999,2.2525655,4.191528249999999
2026-05-10 11:25:07.930,789,0.6838407133333334,0.08866370999999999,1.0491669333333333,-7.785630333333333,1.8257234333333336,4.311028666666666
2026-05-10 11:25:07.940,790,0.738610185,0.1163634975,1.1534057999999998,-6.916064,1.2695307,4.3180537
2026-05-10 11:25:07.950,791,0.76156884,0.14915505,1.1733003,-6.916064,1.2695307,4.3180537
2026-05-10 11:25:07.960,792,0.78443605,0.32648247,0.9620684,-6.104987,1.0780244,4.2496367
2026-05-10 11:25:07.970,793,0.78443605,0.32648247,0.9620684,-5.8858395,1.1065824,4.1201334
2026-05-10 11:25:07.980,794,0.8586477,0.39093745,0.70058966,-5.8858395,1.1065824,4.1201334
2026-05-10 11:25:07.990,795,0.8586477,0.39093745,0.70058966,-5.93577775,1.1227703,4.0556108
2026-05-10 11:25:08.000,796,1.0725626,0.46092120666666664,0.60849078,-6.113845,1.0948232,3.7711766
2026-05-10 11:25:08.010,797,1.1840629749999998,0.501446965,0.8131723975,-6.165463000000001,1.0924561499999998,3.6100609500000003
2026-05-10 11:25:08.020,798,1.1792761,0.58820504,1.0729284,-6.217081,1.0900891,3.4489453
2026-05-10 11:25:08.030,799,0.9979241,0.8465737,1.3820319,-5.288413,1.1823297,3.1535919
2026-05-10 11:25:08.040,800,1.033246275,0.8884969,1.3416331750000001,-4.791016,0.9262244,3.235448
2026-05-10 11:25:08.050,801,1.1392128,1.0142665,1.220437,-4.720231999999999,0.83833615,3.25400285
2026-05-10 11:25:08.060,802,1.29955755,1.123297225,1.178269975,-4.649448,0.7504479,3.2725577
2026-05-10 11:25:08.070,803,1.3530058,1.1596408,1.1642143,-4.521268,0.5561927866666666,3.2597297
2026-05-10 11:25:08.080,804,1.9618217,1.5648474,1.3717264,-4.2479568,0.22586742,3.0589077
2026-05-10 11:25:08.090,805,2.10433,1.8809025,1.501673,-4.1486149,0.22678372000000002,2.9738447499999996
2026-05-10 11:25:08.100,806,2.1329903333333333,2.219865366666667,1.5439112000000002,-3.9562688,0.3904956,2.6435194
2026-05-10 11:25:08.110,807,2.1473205,2.3893468,1.5650303,-3.96165205,0.458607075,2.5910613500000004
2026-05-10 11:25:08.120,808,2.0174956,2.5227692,1.7625419,-3.9778018,0.6629415,2.4336872
2026-05-10 11:25:08.130,809,2.0515833,2.6105793,1.9951774,-3.8137844,0.6224717,2.4620924
2026-05-10 11:25:08.140,810,2.0515833,2.6105793,1.9951774,-3.8137844,0.6224717,2.4620924
2026-05-10 11:25:08.150,811,2.2821454,2.7653138999999998,2.27985855,-2.9717066,0.3961461125,2.3766476
2026-05-10 11:25:08.160,812,2.5991454999999997,2.969091025,2.634269375,-1.953547,0.25992316000000004,2.12504745
2026-05-10 11:25:08.170,813,2.9762102500000003,3.1706424,2.86355115,-0.3911065,0.14828753,1.5796975
2026-05-10 11:25:08.180,814,3.3020425,3.285394933333333,2.7184717,1.5911003333333333,-0.26801712866666666,0.49464815
2026-05-10 11:25:08.190,815,3.0196731249999997,3.057769925,1.95480915,2.6272933,-0.596128125,-0.18738290999999999
2026-05-10 11:25:08.200,816,2.88660135,2.82714665,1.4586521499999998,2.22484765,-0.24381159,-0.764116025
2026-05-10 11:25:08.210,817,2.8463247,2.6652164,1.182508,2.4776695,-0.14782938,-1.8329011
2026-05-10 11:25:08.220,818,2.751136175,2.530909775,1.1798096999999999,2.2871558750000003,-0.1438205775,-2.009250325
2026-05-10 11:25:08.230,819,2.556064,2.3395877,1.232084,1.715615,-0.13179417,-2.538298
2026-05-10 11:25:08.240,820,2.4035753333333334,2.2477328,1.358941,1.625766933333333,-0.20367264666666665,-2.6743681333333336
2026-05-10 11:25:08.250,821,1.4157228000000002,1.19571003,1.9050197,4.50497835,-0.7216227500000001,-3.5886424
2026-05-10 11:25:08.260,822,1.1640771,0.38825436,0.99819853,7.6655569,-2.084921175,-4.088062775
2026-05-10 11:25:08.270,823,1.1689707,0.23836756,0.7613249400000001,8.025242,-2.4596488,-4.1731257
2026-05-10 11:25:08.280,824,1.1689707,0.23836756,0.76132494,7.96869885,-2.5487206000000002,-4.242878875
2026-05-10 11:25:08.290,825,1.2741597,0.1575091825,0.5555659575,7.7990694,-2.815936,-4.4521384
2026-05-10 11:25:08.300,826,1.3092227,0.13055639,0.48697963,7.7990694,-2.815936,-4.4521384
2026-05-10 11:25:08.310,827,1.6236313333333332,0.07315467366666667,0.14370757333333334,6.194479,-2.7207937,-5.2551208
2026-05-10 11:25:08.320,828,1.5831412,0.021891521,0.22489117,5.574909,-2.48331985,-5.4645712500000005
2026-05-10 11:25:08.330,829,1.34512425,-0.04594780025,1.0918319925,4.2261185,-2.479578375,-5.703763325000001
2026-05-10 11:25:08.340,830,1.5060635,-0.025367333,1.4980752,4.685489,-2.9738448,-5.6854753
2026-05-10 11:25:08.350,831,1.6134478,-0.10984381466666666,1.2163920666666665,5.329086533333333,-4.127209166666666,-6.219321000000001
2026-05-10 11:25:08.360,832,1.568811,-0.14086188,0.9863381,5.166393,-4.532162,-6.3894978
2026-05-10 11:25:08.370,833,0.9629219983333334,-0.5078650033333333,0.91915935,2.2844325500000005,-1.3116803999999997,-3.0170380333333333
2026-05-10 11:25:08.380,834,0.35703299666666677,-0.8748681266666666,0.8519806,-0.5975278999999993,1.9088012,0.3554217333333334
2026-05-10 11:25:08.390,835,-0.248856005,-1.24187125,0.78480185,-3.47948835,5.1292828,3.7278815
2026-05-10 11:25:08.400,836,-0.31831124,-1.2037288,0.848891,-3.266856333333333,5.087183966666667,3.9222130666666666
2026-05-10 11:25:08.410,837,-0.31831124,-1.2037288,0.848891,-3.2123876,5.0567427,3.9738312
2026-05-10 11:25:08.420,838,-0.27550388,-1.1199839999999999,0.7408766,-3.054733466666667,4.937369366666666,4.2149703
2026-05-10 11:25:08.430,839,-0.23411427499999998,-1.06341565,0.6442602,-2.71560145,4.604129674999999,5.12767935
2026-05-10 11:25:08.440,840,-0.110448515,-0.9844781999999999,0.493656875,-2.8598802,4.397542724999999,5.634582875
2026-05-10 11:25:08.450,841,0.25849069333333335,-0.8006158333333332,0.3910390733333333,-3.441004,3.831296,6.8061587333333335
2026-05-10 11:25:08.460,842,1.4168966749999998,-0.28576363,0.109564315,-3.6899316,3.7493382,6.968751
2026-05-10 11:25:08.470,843,1.91874,-0.091255325,0.079364385,-4.422626175,3.73639545,7.07733225
2026-05-10 11:25:08.480,844,2.289036,0.04494165,0.08122425,-5.557499233333334,3.8952841333333335,6.9387164666666665
2026-05-10 11:25:08.490,845,2.36503125,0.0585857375,0.13548047,-6.27480775,4.0593142,6.699397275
2026-05-10 11:25:08.500,846,1.7638376500000001,-0.03288301850000001,1.0217059325,-7.2720071,3.244114325,5.3909241
2026-05-10 11:25:08.510,847,1.37809875,-0.0774435455,1.35062755,-6.6613326,1.7802139499999998,5.24091835
2026-05-10 11:25:08.520,848,1.5700307,-0.018293751,1.2602564,-6.4479370000000005,1.407688,5.2742613333333335
2026-05-10 11:25:08.530,849,1.7420071750000001,0.11093634725,1.414396575,-6.060355925,0.90514958,4.786739975
2026-05-10 11:25:08.540,850,1.5444347,0.2660063775,1.3104881,-5.4579282749999996,0.5606597400000001,3.8798724
2026-05-10 11:25:08.550,851,0.6024132,0.01597654,0.8119985499999999,-5.045136,0.36835176,2.9410107
2026-05-10 11:25:08.560,852,0.6613648,-0.053966564999999994,0.8144834624999999,-5.3938255,-0.015958852750000002,3.20937145
2026-05-10 11:25:08.570,853,0.8382196,-0.26379588,0.8219382,-5.894239,-0.24755314,3.3006577
2026-05-10 11:25:08.580,854,0.5238313833333333,-0.2330827,1.6033252666666666,-5.276704766666666,0.254425371,4.011908366666667
2026-05-10 11:25:08.590,855,0.48249765,-0.045185565000000004,1.9693833,-4.7917795,0.41126502,4.476115
2026-05-10 11:25:08.600,856,1.5496483,0.575262215,2.10843095,-4.224476575,0.045089489999999996,4.65536575
2026-05-10 11:25:08.610,857,2.3577798666666667,1.0704283333333333,1.9503576333333335,-1.8671096333333335,-1.0883074,4.1286855
2026-05-10 11:25:08.620,858,2.4625218,1.1648241,1.8594987,-1.5809193,-1.1239921,3.9938369
2026-05-10 11:25:08.630,859,2.4809984750000003,1.6713018499999999,1.184093425,-4.05095285,0.05230533750000001,3.8353556749999997
2026-05-10 11:25:08.640,860,2.8784911500000003,1.99493345,2.00313525,-5.03429315,0.46845727000000004,3.4317646
2026-05-10 11:25:08.650,861,3.0315793,2.1007323,2.4748397,-5.1987686,0.61010164,2.9816331999999997
2026-05-10 11:25:08.660,862,3.05145855,2.22345295,2.708679475,-4.6796477,0.536110595,2.697389975
2026-05-10 11:25:08.670,863,3.079509,2.4176412,2.982674,-2.7509171,0.267482625,1.6837355
2026-05-10 11:25:08.680,864,3.0563370000000005,2.5471609333333336,2.843356866666667,-1.6368134,0.12751812,1.2009611
2026-05-10 11:25:08.690,865,2.9727040000000002,2.6871996,2.67991245,-0.70386946,0.048716504,0.829555
2026-05-10 11:25:08.700,866,3.183829,2.9797774500000003,2.382730475,-0.07422013,0.07284568,0.6916522
2026-05-10 11:25:08.710,867,3.2417135,3.0165174,2.3510518,0.59788436,0.29458976,0.39202276
2026-05-10 11:25:08.720,868,3.2903952333333333,3.0435921333333336,2.3175539,0.59788436,0.29458976,0.39202275999999997
2026-05-10 11:25:08.730,869,3.3877587,3.0977416,2.2505581,1.105666,0.54168475,0.05009095
2026-05-10 11:25:08.740,870,3.3877587,3.0977416,2.2505581,1.105666,0.54168475,0.05009095
2026-05-10 11:25:08.750,871,3.3877587000000005,3.0977416000000004,2.2505581,1.105666,0.54168475,0.05009095
2026-05-10 11:25:08.760,872,3.4590128499999997,3.1000284000000002,2.1413139,1.105666,0.54168475,0.05009095
2026-05-10 11:25:08.770,873,3.5205255749999997,3.0766582,1.9631480250000002,1.7195856999999999,0.7034877025,-0.5922338624999999
2026-05-10 11:25:08.780,874,3.4913013,2.9996872,1.7563830000000002,2.652377,0.5101233933333333,-1.7808758666666666
2026-05-10 11:25:08.790,875,2.55319775,2.25879035,1.2243093,3.60956465,-0.649922415,-2.681736675
2026-05-10 11:25:08.800,876,2.4958162,2.1702487,1.1486037,3.7033706,-0.93523467,-2.8678596
2026-05-10 11:25:08.810,877,2.3309897,1.99706775,0.9398414500000001,3.1897092750000002,-0.98303485,-3.168901625
2026-05-10 11:25:08.820,878,2.2229347,1.896757,0.8376099,2.5141687,-0.8008443,-3.4112241
2026-05-10 11:25:08.830,879,2.0910976,1.8073007,0.884076,1.970804,-0.5844453,-3.6167803
2026-05-10 11:25:08.840,880,1.9674014,1.72878995,1.014358,1.7771216,-0.63426903,-3.7533088
2026-05-10 11:25:08.850,881,1.8437051999999998,1.6502792,1.14464,1.7125608,-0.65087694,-3.7988183
2026-05-10 11:25:08.860,882,1.696028825,1.5060329749999999,1.524967025,1.9205604,-0.9512699,-3.982994
2026-05-10 11:25:08.870,883,1.6135697,1.3894103,1.7671763,1.9205604,-0.9512699,-3.982994
2026-05-10 11:25:08.880,884,1.5353538333333334,1.2889167,1.8525878333333334,2.8813495000000002,-0.7625634333333333,-4.382449066666666
2026-05-10 11:25:08.890,885,1.4362423500000001,1.11369307,1.9073674,3.5605044,-0.418366325,-4.5679738
2026-05-10 11:25:08.900,886,1.41630215,0.7650293850000001,1.904760475,5.130580775,-0.1620701875,-4.8735592500000005
2026-05-10 11:25:08.910,887,1.45613685,0.59259555,1.86428555,5.7453403,-0.17837265,-4.977483
2026-05-10 11:25:08.920,888,1.5292762333333332,0.41195493,1.7171123333333334,5.7453403,-0.17837265,-4.977483
2026-05-10 11:25:08.930,889,1.6579015,0.11592139,1.4464868,6.0530637249999995,-0.308792375,-5.078352000000001
2026-05-10 11:25:08.940,890,1.6632981999999998,0.0683271525,1.389532275,7.1772468499999995,-1.0020480375,-5.56479125
2026-05-10 11:25:08.950,891,1.5985892333333334,-0.23210705333333334,0.9258060333333334,7.4163623,-2.4591908,-6.3126817
2026-05-10 11:25:08.960,892,1.532436975,-0.3205827425,0.70767846,7.4163623,-2.4591908,-6.3126817
2026-05-10 11:25:08.970,893,1.4553288,-0.34953257,0.49258974,7.283613575,-2.4838545,-6.320279275
2026-05-10 11:25:08.980,894,1.4237822,-0.3326210233333333,0.3480691,6.8853674,-2.5578456,-6.343072
2026-05-10 11:25:08.990,895,1.43878815,-0.3035542975,0.2554264925,6.8853674,-2.5578456,-6.343072
2026-05-10 11:25:09.000,896,1.5311259,-0.24172144,0.19427963,5.35847165,-2.2618813500000003,-6.326807725
2026-05-10 11:25:09.010,897,1.86315745,-0.096438553,0.48612591,4.6076037,-2.1329124000000004,-6.3267314
2026-05-10 11:25:09.020,898,2.0554857,-0.027440626,0.6565017,4.365701,-2.1025982,-6.3320765
2026-05-10 11:25:09.030,899,2.2030707,-0.0860263615,0.9556503000000001,3.3689982499999998,-2.45983985,-7.0415201
2026-05-10 11:25:09.040,900,2.2522657,-0.10555494,1.0553665,3.1009047,-2.784171,-7.608632
2026-05-10 11:25:09.050,901,2.0737186666666667,-0.18190085,1.2647689333333334,3.583030133333333,-3.327688333333333,-7.842186333333333
2026-05-10 11:25:09.060,902,1.47918695,-0.21813771825,1.404212975,3.89189885,-3.6641988000000003,-7.700873
2026-05-10 11:25:09.070,903,1.48487325,0.10299380875,0.8045286125,2.884391125,-2.335605125,-6.1056745
2026-05-10 11:25:09.080,904,1.5975323,0.14891112,0.7101633499999999,2.6861272,-1.9969184,-5.772982
2026-05-10 11:25:09.090,905,1.677293,0.18312044,0.60930383,2.6861272,-1.9969184,-5.772982
2026-05-10 11:25:09.100,906,1.7021267,0.1892031125,0.4643716025,2.301167575,-1.6734653,-5.91008305
2026-05-10 11:25:09.110,907,1.38469965,0.013552624124999996,0.4701798575,1.8729128,-1.4763849,-5.99823865
2026-05-10 11:25:09.120,908,1.1570797,-0.21123183,0.5039318,1.9107864999999997,-1.6577355999999999,-5.900042
2026-05-10 11:25:09.130,909,1.08466695,-0.32465309,0.50554778,1.94682755,-1.6551012250000001,-5.884197675
2026-05-10 11:25:09.140,910,1.0122542,-0.43807435,0.50716376,2.0549507,-1.6471981,-5.8366647
2026-05-10 11:25:09.150,911,0.6700391,-0.8102302,0.45709983,2.4156666,-1.7029395999999999,-5.6865444
2026-05-10 11:25:09.160,912,0.3741224525,-1.323004025,0.227406555,2.5426884000000003,-1.9149480250000002,-5.5588356
2026-05-10 11:25:09.170,913,0.30599347,-1.4524018,0.17153439,2.585029,-1.9856175,-5.516266
2026-05-10 11:25:09.180,914,-0.262545835,-2.202140675,0.11570797375,2.41513215,-1.3846024,-5.198539500000001
2026-05-10 11:25:09.190,915,-1.0005665333333333,-2.7182886666666666,-0.35670780166666666,2.3504567,-0.8112799466666667,-4.3248748
2026-05-10 11:25:09.200,916,-1.100613,-2.760039,-0.48752844,1.9184223,-0.6750061,-2.9617800499999998
2026-05-10 11:25:09.210,917,-0.99219203,-2.874192,-0.92657846,1.619862,-0.691194,-2.5143213
2026-05-10 11:25:09.220,918,-1.0280020575,-2.914910925,-1.100277615,0.40744715,-0.37476581649999996,-1.91147365
2026-05-10 11:25:09.230,919,-1.2412919333333334,-2.8940103,-1.0323163333333334,-1.2716687666666668,0.10578149566666667,-1.0389290466666667
2026-05-10 11:25:09.240,920,-1.2780014,-2.8940103,-0.9823134,-1.5050193,0.18784106,-0.90408057
2026-05-10 11:25:09.250,921,-1.3241016499999998,-2.755938225,-0.374869425,-2.0368920249999998,0.4142430025,0.21273384099999998
2026-05-10 11:25:09.260,922,-1.2297466000000001,-2.5252489333333332,0.03270516033333334,-1.9828686,0.5137377,1.0882565
2026-05-10 11:25:09.270,923,-1.1345479,-2.42404385,0.03928583,-1.608064575,0.5692119,1.5085317249999999
2026-05-10 11:25:09.280,924,-0.8009004,-2.131466,-0.22226907,-1.23791845,0.8733082,2.1870502
2026-05-10 11:25:09.290,925,-0.8009004,-2.131466,-0.22226907,-1.2286028,1.0558805,2.424524
2026-05-10 11:25:09.300,926,-0.7086389333333333,-1.9804205666666668,-0.20525588333333333,-1.6845118666666667,1.4681636999999998,2.694119333333333
2026-05-10 11:25:09.310,927,-0.524116,-1.6783297,-0.17122951,-3.055967925,2.40081495,3.404810125
2026-05-10 11:25:09.320,928,-0.52853695,-1.6258266,-0.06107064,-3.2308662,2.417652,3.5839465
2026-05-10 11:25:09.330,929,-0.5329579,-1.5733235,0.04908822999999999,-3.2308662,2.417652,3.5839465
2026-05-10 11:25:09.340,930,-0.502346375,-1.5077099,0.25068536750000003,-3.27576485,2.33785765,3.8562397500000003
2026-05-10 11:25:09.350,931,-0.37014356,-1.2697387,0.8531290125,-3.130226275,2.208354225,4.395366425
2026-05-10 11:25:09.360,932,-0.257515,-1.1203092,1.1429325,-2.1928535,2.4817927,5.3178873
2026-05-10 11:25:09.370,933,-0.257515,-1.1203092,1.1429325,-2.0564269,2.5674666,5.460931599999999
2026-05-10 11:25:09.380,934,0.49902302,-0.7928511300000001,0.75879427,-1.587715125,3.00011195,6.4083199
2026-05-10 11:25:09.390,935,0.9314568,-0.54515374,0.4549046,-1.7551685750000001,3.150613925,6.948401175
2026-05-10 11:25:09.400,936,0.9314568,-0.54515374,0.45490460000000005,-2.4303274,2.8858802000000003,7.251887
2026-05-10 11:25:09.410,937,1.067104875,-0.34282487500000003,0.3004595975,-2.4303274,2.8858802,7.251887
2026-05-10 11:25:09.420,938,1.1123209,-0.27538192,0.24897793,-2.58861785,2.7826058,7.3147297
2026-05-10 11:25:09.430,939,1.10405825,-0.17269299999999999,0.20979882,-3.0634892,2.4727826,7.5032578
2026-05-10 11:25:09.440,940,1.0957956,-0.07000408,0.17061971,-3.0634892,2.4727826,7.5032578
2026-05-10 11:25:09.450,941,1.1546201333333332,0.046344166666666665,0.16789597666666667,-3.395138133333333,2.3315708666666666,7.710951866666666
2026-05-10 11:25:09.460,942,1.8356559,0.24775836,0.286846,-4.347108,2.017077,8.261303000000002
2026-05-10 11:25:09.470,943,1.8356559,0.24775836,0.286846,-5.213124,1.9208658,8.666192
2026-05-10 11:25:09.480,944,2.4570947,0.1595215,0.82657266,-6.505816766666666,2.161648533333333,8.239248333333334
2026-05-10 11:25:09.490,945,2.419973625,0.1413649525,0.9526013449999999,-6.9791355,2.28036,7.841677
2026-05-10 11:25:09.500,946,2.3086104,0.08689531,1.3306874,-7.0199871,2.1804835000000002,7.6233691
2026-05-10 11:25:09.510,947,1.8457784,0.10701844499999999,1.8600476000000001,-5.512066,1.1375074,7.0521338
2026-05-10 11:25:09.520,948,1.7318693000000003,0.13982524,1.7291863,-4.1024182,0.5532911866666667,7.103802866666666
2026-05-10 11:25:09.530,949,1.77879275,0.24519723,1.23964555,-3.341623875,0.407828915,7.2855988499999995
2026-05-10 11:25:09.540,950,1.8323629,0.3351415,0.8352927,-3.318831,0.43554693,7.3285503
2026-05-10 11:25:09.550,951,1.9836523999999998,0.33373897999999996,0.41234115,-3.723172833333333,0.6609052866666667,7.291745633333334
2026-05-10 11:25:09.560,952,1.99125955,0.31777768500000003,0.396379845,-4.73733625,1.2290608500000002,7.165983725
2026-05-10 11:25:09.570,953,1.9458859000000002,0.21206522333333333,0.4496603533333334,-5.3537755,1.5813774,7.009526
2026-05-10 11:25:09.580,954,1.72093875,0.027608320000000006,0.7678039000000001,-7.1774759,2.1555907000000003,6.0617686
2026-05-10 11:25:09.590,955,1.4071146666666667,-0.19141361333333332,1.2065135,-7.2440982,1.7002924333333336,5.617924033333334
2026-05-10 11:25:09.600,956,1.29196565,-0.215469885,1.4049448,-6.9957814,1.2854131,5.3746977
2026-05-10 11:25:09.610,957,1.235438,-0.21190260000000002,1.4526457,-6.764568999999999,1.0711522,5.2390857
2026-05-10 11:25:09.620,958,1.2103145,-0.10579886,1.5458219,-5.79818,0.6575964,5.0326133
2026-05-10 11:25:09.630,959,1.2103145,-0.10579886,1.5458219,-5.79818,0.6575964,5.0326133
2026-05-10 11:25:09.640,960,2.229439,0.7340468600000001,1.8926307333333334,-3.26118035,0.10242171666666655,3.02668456
2026-05-10 11:25:09.650,961,3.2485635,1.57389258,2.239439566666667,-0.7241806999999998,-0.45275296666666687,1.0207558199999998
2026-05-10 11:25:09.660,962,4.267688,2.4137383,2.5862484,1.81281895,-1.00792765,-0.98517292
2026-05-10 11:25:09.670,963,4.267688,2.4137383,2.5862484,2.3312144,-1.0056369,-1.3416128
2026-05-10 11:25:09.680,964,4.256666,2.197323325,2.32780335,2.5894576999999996,-0.8837693,-1.7579938
2026-05-10 11:25:09.690,965,3.9817769333333337,1.9272059666666668,2.0033891333333336,2.9290478666666666,-0.6257805333333333,-2.4670811333333336
2026-05-10 11:25:09.700,966,3.25808635,1.46350005,1.46758565,2.6529876999999997,-0.070936728,-3.2198707
2026-05-10 11:25:09.710,967,2.9381135499999997,1.37232095,1.36169535,2.35519085,0.103541663,-3.231858875
2026-05-10 11:25:09.720,968,2.4791894,1.3189184666666665,1.2947504333333333,1.7526232999999998,0.39981131000000003,-3.1054861666666667
2026-05-10 11:25:09.730,969,2.3720591,1.3807209,1.57929945,1.6507105750000002,0.1726457875,-3.2545373
2026-05-10 11:25:09.740,970,2.350503,1.4087407999999997,1.718027,1.7241671,0.09315695,-3.3104315
2026-05-10 11:25:09.750,971,1.9856341,1.05143322,2.1577173,4.5171194,0.39301543,-4.4044912499999995
2026-05-10 11:25:09.760,972,1.8108373,0.67107576,1.8760241,6.3131394,0.24251351,-4.9086075
2026-05-10 11:25:09.770,973,1.806172425,0.6091514075,1.79429675,6.3131394,0.24251351,-4.9086075
2026-05-10 11:25:09.780,974,1.8513886,0.22836697000000003,1.3014784,7.611482666666667,-0.5251404866666666,-5.262858733333334
2026-05-10 11:25:09.790,975,1.8712678,0.04600878,1.07466635,8.289746749999999,-1.4365259799999999,-5.8000127
2026-05-10 11:25:09.800,976,1.7666884333333333,-0.41018653666666666,0.4883415,7.2664965,-1.9474384,-6.8352767666666665
2026-05-10 11:25:09.810,977,1.4931359,-0.41557303,0.40008432,5.8149028000000005,-2.15589625,-7.25089405
2026-05-10 11:25:09.820,978,1.3151987,-0.32507995,0.74479955,4.4060183,-2.4782803,-6.731582
2026-05-10 11:25:09.830,979,1.5007583,-0.16336319,0.8705995999999999,4.180151,-2.5896106,-6.509837999999999
2026-05-10 11:25:09.840,980,1.5007583,-0.16336319,0.8705996,4.1557165000000005,-2.6206883,-6.500980500000001
2026-05-10 11:25:09.850,981,1.54676705,-0.0979172975,0.89250635,4.0606504999999995,-2.8309786,-6.5071655
2026-05-10 11:25:09.860,982,1.5621033,-0.076102,0.8998086,3.990019,-3.0101912,-6.522208
2026-05-10 11:25:09.870,983,1.5621032999999998,-0.076102,0.8998086,3.990019,-3.0101912,-6.522208
2026-05-10 11:25:09.880,984,1.5621033,-0.076102,0.8998086,3.990019,-3.0101912,-6.522208
2026-05-10 11:25:09.890,985,1.5621033,-0.076102,0.8998086,3.990019,-3.0101912,-6.522208
2026-05-10 11:25:09.900,986,1.4649636,-0.048112564,0.93883526,3.9412261,-3.3882785749999997,-6.4204989999999995
2026-05-10 11:25:09.910,987,1.50443235,0.040017579250000004,0.964568455,3.89006615,-3.6245689,-6.32344785
2026-05-10 11:25:09.920,988,1.694916,0.10701844,1.0293283,3.8551705,-3.7348301,-6.2602997
2026-05-10 11:25:09.930,989,1.8127887,0.031831127,1.1484207,3.8446331,-4.0749674,-6.44596485
2026-05-10 11:25:09.940,990,1.704062875,0.00054881235,0.9505889375000001,3.8664715999999997,-4.157625299999999,-6.6407162
2026-05-10 11:25:09.950,991,1.5994225999999998,0.013354438000000001,0.79016805,3.505755666666667,-4.147571333333333,-6.569448466666667
2026-05-10 11:25:09.960,992,1.61593265,0.034575187,0.7530316874999999,3.0742557,-4.0469058,-6.44684275
2026-05-10 11:25:09.970,993,1.642961675,0.02327879575,0.776600125,2.751107975,-3.957375925,-6.3710955
2026-05-10 11:25:09.980,994,1.7075387,-0.031831127,0.8844418,2.5525512666666668,-3.901494533333333,-6.415255866666667
2026-05-10 11:25:09.990,995,1.6772777749999999,-0.05038403775,0.8932838,2.484847,-3.8673878,-6.5361056
2026-05-10 11:25:10.000,996,1.1221386,-0.28050417,0.8702337,2.6846,-3.7183367,-6.376822450000001
2026-05-10 11:25:10.010,997,0.94661007,-0.3513467175,0.822990075,2.7036896,-3.647629,-6.2815275
2026-05-10 11:25:10.020,998,0.7844156600000001,-0.47167386666666666,0.7205501666666666,2.7036896,-3.647629,-6.2815275
2026-05-10 11:25:10.030,999,0.53579347,-0.7591601299999999,0.4639905,2.6605473,-3.29096005,-5.9353194
2026-05-10 11:25:10.040,1000,0.26379588,-1.4356935,0.48155248,2.1284072,-2.0775528,-5.0961432
