timestamp,id,acc_x,acc_y,acc_z,gyro_x,gyro_y,gyro_z
2026-05-10 11:31:46.000,1,1.0116444,-0.46649066,0.12726352,-0.19242255,-0.094989546,0.06994407
2026-05-10 11:31:46.010,2,1.03085285,-0.459569515,0.14878917,-0.1217912565,-0.07246389049999999,-0.09789116499999997
2026-05-10 11:31:46.020,3,1.0500613,-0.45264837,0.17031482,-0.051159963,-0.049938235,-0.2657264
2026-05-10 11:31:46.030,4,1.0500613,-0.45264837,0.17031482,-0.051159963,-0.049938235,-0.2657264
2026-05-10 11:31:46.040,5,1.0972592,-0.46453932,0.24446549,-0.051159963,-0.049938235,-0.2657264
2026-05-10 11:31:46.050,6,1.0972592,-0.46453932,0.24446549,-0.051159963,-0.049938235,-0.2657264
2026-05-10 11:31:46.060,7,1.0972592,-0.4645393199999999,0.24446548999999998,-0.051159963,-0.049938235,-0.2657264
2026-05-10 11:31:46.070,8,1.0972592,-0.46453932,0.24446549,-0.051159963,-0.049938235,-0.2657264
2026-05-10 11:31:46.080,9,1.0972592,-0.4645393199999999,0.24446548999999998,-0.051159963,-0.049938235,-0.2657264
2026-05-10 11:31:46.090,10,1.0972592,-0.4645393199999999,0.24446548999999998,-0.051159963,-0.049938235,-0.2657264
2026-05-10 11:31:46.100,11,1.0496954,-0.48018046999999997,0.241081145,-0.014355332500000002,-0.0011453739999999976,-0.32146783999999995
2026-05-10 11:31:46.110,12,1.0021316,-0.49582162,0.2376968,0.022449297999999996,0.04764748700000001,-0.37720928
2026-05-10 11:31:46.120,13,1.0021316,-0.49582162,0.2376968,0.022449298,0.047647487,-0.37720928
2026-05-10 11:31:46.130,14,1.0021316,-0.49582162,0.2376968,0.022449298,0.047647487,-0.37720928
2026-05-10 11:31:46.140,15,1.0021316,-0.49582162,0.2376968,0.022449298,0.047647487,-0.37720928
2026-05-10 11:31:46.150,16,1.0021316,-0.49582162,0.2376968,0.022449298,0.047647487,-0.37720928
2026-05-10 11:31:46.160,17,1.0021316,-0.49582162,0.2376968,0.022449298,0.047647487,-0.37720928
2026-05-10 11:31:46.170,18,1.0021316,-0.49582162,0.2376968,0.022449297999999996,0.04764748700000001,-0.37720928
2026-05-10 11:31:46.180,19,1.0021316,-0.49582162,0.2376968,0.022449298,0.047647487,-0.37720928
2026-05-10 11:31:46.190,20,1.0021316,-0.49582162,0.2376968,0.022449298,0.047647487,-0.37720928
2026-05-10 11:31:46.200,21,1.0021316,-0.49582162,0.2376968,0.022449298,0.047647487,-0.37720928
2026-05-10 11:31:46.210,22,1.0021316,-0.49582162,0.2376968,0.022449298,0.047647487,-0.37720928
2026-05-10 11:31:46.220,23,1.0021316,-0.49582162,0.2376968,0.022449297999999996,0.04764748700000001,-0.37720928
2026-05-10 11:31:46.230,24,1.0021316,-0.49582162,0.2376968,0.022449297999999996,0.04764748700000001,-0.37720928
2026-05-10 11:31:46.240,25,1.0021316,-0.49582162,0.2376968,0.022449298,0.047647487,-0.37720928
2026-05-10 11:31:46.250,26,1.0021316,-0.49582162,0.2376968,0.022449297999999996,0.04764748700000001,-0.37720928
2026-05-10 11:31:46.260,27,1.0021316,-0.49582162,0.2376968,0.022449298,0.047647487,-0.37720928
2026-05-10 11:31:46.270,28,1.0021316,-0.49582162,0.2376968,0.022449297999999996,0.04764748700000001,-0.37720928
2026-05-10 11:31:46.280,29,1.0021316,-0.49582162,0.2376968,0.022449298,0.047647487,-0.37720928
2026-05-10 11:31:46.290,30,1.0021316,-0.49582162,0.2376968,0.022449298,0.047647487,-0.37720928
2026-05-10 11:31:46.300,31,1.0021316,-0.49582162,0.2376968,0.022449298,0.047647487,-0.37720928
2026-05-10 11:31:46.310,32,1.0021316,-0.49582162,0.2376968,0.022449298,0.047647487,-0.37720928
2026-05-10 11:31:46.320,33,1.0021316,-0.49582162,0.2376968,0.022449297999999996,0.04764748700000001,-0.37720928
2026-05-10 11:31:46.330,34,0.9504822625,-0.50736194,0.21104890250000002,0.022449298,0.047647487,-0.37720928
2026-05-10 11:31:46.340,35,0.79553425,-0.5419829,0.13110521,0.022449298,0.047647487,-0.37720928
2026-05-10 11:31:46.350,36,0.79553425,-0.5419829,0.13110521,0.022449298,0.047647487,-0.37720928
2026-05-10 11:31:46.360,37,0.79553425,-0.5419829,0.13110521,0.022449298,0.047647487,-0.37720928
2026-05-10 11:31:46.370,38,0.79553425,-0.5419829,0.13110521,0.022449298,0.047647487,-0.37720928
2026-05-10 11:31:46.380,39,0.7955342499999999,-0.5419829,0.13110521,0.022449297999999996,0.04764748700000001,-0.37720928
2026-05-10 11:31:46.390,40,0.79553425,-0.5419829,0.13110521,0.022449298,0.047647487,-0.37720928
2026-05-10 11:31:46.400,41,0.79553425,-0.5419829,0.13110521,0.022449298,0.047647487,-0.37720928
2026-05-10 11:31:46.410,42,0.79553425,-0.5419829,0.13110521,0.022449298,0.047647487,-0.37720928
2026-05-10 11:31:46.420,43,0.745653275,-0.54731855,0.0680832405,0.046005789500000005,0.09395871125,-0.266909935
2026-05-10 11:31:46.430,44,0.6957723000000001,-0.5526542,0.005061271,0.0355829,0.09224065399999999,-0.17531833
2026-05-10 11:31:46.440,45,0.6957723,-0.5526542,0.005061271,0.0355829,0.092240654,-0.17531833
2026-05-10 11:31:46.450,46,0.6957723,-0.5526542,0.005061271,0.0355829,0.092240654,-0.17531833
2026-05-10 11:31:46.460,47,0.6957723,-0.5526542,0.005061271,0.0355829,0.092240654,-0.17531833
2026-05-10 11:31:46.470,48,0.6957723,-0.5526542,0.005061271,0.0355829,0.092240654,-0.17531833
2026-05-10 11:31:46.480,49,0.6957723,-0.5526542,0.005061271,0.0355829,0.092240654,-0.17531833
2026-05-10 11:31:46.490,50,0.6957723000000001,-0.5526542,0.005061271,0.0355829,0.09224065399999999,-0.17531833
2026-05-10 11:31:46.500,51,0.6957723,-0.5526542,0.005061271,0.0355829,0.092240654,-0.17531833
2026-05-10 11:31:46.510,52,0.6957723,-0.5526542,0.005061271,0.0355829,0.092240654,-0.17531833
2026-05-10 11:31:46.520,53,0.6957723,-0.5526542,0.005061271,0.0355829,0.092240654,-0.17531833
2026-05-10 11:31:46.530,54,0.6957723,-0.5526542,0.005061271,0.0355829,0.092240654,-0.17531833
2026-05-10 11:31:46.540,55,0.6957723,-0.5526542,0.005061271,0.0355829,0.092240654,-0.17531833
2026-05-10 11:31:46.550,56,0.6957723000000001,-0.5526542,0.005061271,0.0355829,0.09224065399999999,-0.17531833
2026-05-10 11:31:46.560,57,0.6957723,-0.5526542,0.005061271,0.0355829,0.092240654,-0.17531833
2026-05-10 11:31:46.570,58,0.6957723,-0.5526542,0.005061271,0.0355829,0.092240654,-0.17531833
2026-05-10 11:31:46.580,59,0.6957723,-0.5526542,0.005061271,0.0090484415,0.06146831675,-0.136184774
2026-05-10 11:31:46.590,60,0.6957723,-0.5526542,0.005061271,-0.070554934,-0.030848695,-0.018784106
2026-05-10 11:31:46.600,61,0.6957723,-0.5526542,0.005061271,-0.070554934,-0.030848695,-0.018784106
2026-05-10 11:31:46.610,62,0.6957723,-0.5526542,0.005061271,-0.070554934,-0.030848695,-0.018784106
2026-05-10 11:31:46.620,63,0.6957723000000001,-0.5526542,0.005061271,-0.070554934,-0.030848695,-0.018784106
2026-05-10 11:31:46.630,64,0.6957723,-0.5526542,0.005061271,-0.070554934,-0.030848695,-0.018784106
2026-05-10 11:31:46.640,65,0.6957723,-0.5526542,0.005061271,-0.070554934,-0.030848695,-0.018784106
2026-05-10 11:31:46.650,66,0.6957723,-0.5526542,0.005061271,-0.070554934,-0.030848695,-0.018784106
2026-05-10 11:31:46.660,67,0.6957723,-0.5526542,0.005061271,-0.070554934,-0.030848695,-0.018784106
2026-05-10 11:31:46.670,68,0.6957723000000001,-0.5526542,0.005061271,-0.070554934,-0.030848695,-0.018784106
2026-05-10 11:31:46.680,69,0.6957723,-0.5526542,0.005061271,-0.070554934,-0.030848695,-0.018784106
2026-05-10 11:31:46.690,70,0.6957723,-0.5526542,0.005061271,-0.2660318,-0.14110987,0.15393804
2026-05-10 11:31:46.700,71,0.6957723,-0.5526542,0.005061271,-0.2660318,-0.14110987,0.15393804
2026-05-10 11:31:46.710,72,0.6957723,-0.5526542,0.005061271,-0.2660318,-0.14110987,0.15393804
2026-05-10 11:31:46.720,73,0.6957723,-0.5526542,0.005061271,-0.2660318,-0.14110987,0.15393804
2026-05-10 11:31:46.730,74,0.6957723,-0.5526542,0.005061271,-0.2660318,-0.14110987,0.15393804
2026-05-10 11:31:46.740,75,0.7226640999999999,-0.5618011,-0.0075004376,-0.2660318,-0.14110987,0.15393804
2026-05-10 11:31:46.750,76,0.7226641,-0.5618011,-0.0075004376,-0.2660318,-0.14110987,0.15393804
2026-05-10 11:31:46.760,77,0.7226641,-0.5618011,-0.0075004376,-0.2660318,-0.14110987,0.15393804
2026-05-10 11:31:46.770,78,0.7226641,-0.5618011,-0.0075004376,-0.2660318,-0.14110987,0.15393804
2026-05-10 11:31:46.780,79,0.7226641,-0.5618011,-0.0075004376,-0.2660318,-0.14110987,0.15393804
2026-05-10 11:31:46.790,80,0.7226641,-0.5618011,-0.0075004376,-0.2660318,-0.14110987,0.15393804
2026-05-10 11:31:46.800,81,0.7226640999999999,-0.5618011,-0.0075004376,-0.2660318,-0.14110987,0.15393804
2026-05-10 11:31:46.810,82,0.7226641,-0.5618011,-0.0075004376,-0.2660318,-0.14110987,0.15393804
2026-05-10 11:31:46.820,83,0.7226641,-0.5618011,-0.0075004376,-0.2660318,-0.14110987,0.15393804
2026-05-10 11:31:46.830,84,0.7226641,-0.5618011,-0.0075004376,-0.2660318,-0.14110987,0.15393804
2026-05-10 11:31:46.840,85,0.7226641,-0.5618011,-0.0075004376,-0.2660318,-0.14110987,0.15393804
2026-05-10 11:31:46.850,86,0.7226640999999999,-0.5618011,-0.0075004376,-0.36438109999999996,-0.16325374,0.23457226
2026-05-10 11:31:46.860,87,0.719462685,-0.5574410700000001,-0.0031404271499999997,-0.3643811,-0.16325374,0.23457226
2026-05-10 11:31:46.870,88,0.71626127,-0.55308104,0.0012195833,-0.3643811,-0.16325374,0.23457226
2026-05-10 11:31:46.880,89,0.71626127,-0.55308104,0.0012195833,-0.3643811,-0.16325374,0.23457226
2026-05-10 11:31:46.890,90,0.71626127,-0.55308104,0.0012195833,-0.3643811,-0.16325374,0.23457226
2026-05-10 11:31:46.900,91,0.71626127,-0.55308104,0.0012195833,-0.3643811,-0.16325374,0.23457226
2026-05-10 11:31:46.910,92,0.71626127,-0.55308104,0.0012195833,-0.36438109999999996,-0.16325374,0.23457226
2026-05-10 11:31:46.920,93,0.71626127,-0.55308104,0.0012195833,-0.3643811,-0.16325374,0.23457226
2026-05-10 11:31:46.930,94,0.7268259024999999,-0.54567208,0.020031657475,-0.3643811,-0.16325374,0.23457226
2026-05-10 11:31:46.940,95,0.7585198,-0.5234452,0.07646788,-0.3643811,-0.16325374,0.23457226
2026-05-10 11:31:46.950,96,0.7585198,-0.5234452,0.07646788,-0.3643811,-0.16325374,0.23457226
2026-05-10 11:31:46.960,97,0.7585198,-0.5234452,0.07646788,-0.47319150500000007,-0.160962985,0.35025486250000004
2026-05-10 11:31:46.970,98,0.7585197999999999,-0.5234452,0.07646788,-0.50946164,-0.1601994,0.38881572999999997
2026-05-10 11:31:46.980,99,0.7585198,-0.5234452,0.07646788,-0.50946164,-0.1601994,0.38881573
2026-05-10 11:31:46.990,100,0.7585198,-0.5234452,0.07646788,-0.50946164,-0.1601994,0.38881573
2026-05-10 11:31:47.000,101,0.7585198,-0.5234452,0.07646788,-0.50946164,-0.1601994,0.38881573
2026-05-10 11:31:47.010,102,0.7585198,-0.5234452,0.07646788,-0.50946164,-0.1601994,0.38881573
2026-05-10 11:31:47.020,103,0.7585198,-0.5234452,0.07646788,-0.50946164,-0.1601994,0.38881573
2026-05-10 11:31:47.030,104,0.8145292,-0.5159752500000001,0.122232745,-0.50946164,-0.1601994,0.38881573
2026-05-10 11:31:47.040,105,0.8705386,-0.5085053,0.16799761,-0.50946164,-0.1601994,0.38881572999999997
2026-05-10 11:31:47.050,106,0.8705386,-0.5085053,0.16799761,-0.50946164,-0.1601994,0.38881573
2026-05-10 11:31:47.060,107,0.8705386,-0.5085053,0.16799761,-0.50946164,-0.1601994,0.38881573
2026-05-10 11:31:47.070,108,0.8705386,-0.5085053,0.16799761,-0.50946164,-0.1601994,0.38881573
2026-05-10 11:31:47.080,109,0.8705386,-0.5085053,0.16799761,-0.50946164,-0.1601994,0.38881572999999997
2026-05-10 11:31:47.090,110,0.8705386,-0.5085053,0.16799761,-0.50946164,-0.1601994,0.38881573
2026-05-10 11:31:47.100,111,0.8705386,-0.5085053,0.16799761,-0.50946164,-0.1601994,0.38881573
2026-05-10 11:31:47.110,112,0.8705386,-0.5085053,0.16799761,-0.516715655,-0.13110694574999998,0.3937026475
2026-05-10 11:31:47.120,113,0.8705386,-0.5085053,0.16799761,-0.5384777,-0.043829583,0.4083634
2026-05-10 11:31:47.130,114,0.8705386,-0.5085053,0.16799761,-0.5384777,-0.043829583,0.4083634
2026-05-10 11:31:47.140,115,0.8705386,-0.5085053,0.16799761,-0.5384777,-0.043829583,0.4083634
2026-05-10 11:31:47.150,116,0.8705386,-0.5085053,0.16799761,-0.5384777,-0.043829583,0.4083634
2026-05-10 11:31:47.160,117,0.8705386,-0.5085053,0.16799761,-0.5384777,-0.043829583,0.4083634
2026-05-10 11:31:47.170,118,0.8705386,-0.5085053,0.16799761,-0.5384777,-0.043829583,0.4083634
2026-05-10 11:31:47.180,119,0.8705386,-0.5085053,0.16799761,-0.5384777,-0.043829583,0.4083634
2026-05-10 11:31:47.190,120,0.8705386,-0.5085053,0.16799761,-0.507323585,-0.0132863195,0.39637518
2026-05-10 11:31:47.200,121,0.8705386,-0.5085053,0.16799761,-0.47616947,0.017256944,0.38438696
2026-05-10 11:31:47.210,122,0.8705386,-0.5085053,0.16799761,-0.47616947,0.017256944,0.38438696
2026-05-10 11:31:47.220,123,0.8705386,-0.5085053,0.16799761,-0.47616947,0.017256944,0.38438696
2026-05-10 11:31:47.230,124,0.8705386,-0.5085053,0.16799761,-0.47616947000000004,0.017256944,0.38438696
2026-05-10 11:31:47.240,125,0.8705386,-0.5085053,0.16799761,-0.47616947,0.017256944,0.38438696
2026-05-10 11:31:47.250,126,0.9204347875000001,-0.46428015499999997,0.266509465,-0.47616947,0.017256944,0.38438696
2026-05-10 11:31:47.260,127,0.93706685,-0.44953844,0.29934675,-0.47616947,0.017256944,0.38438696
2026-05-10 11:31:47.270,128,0.93706685,-0.44953844,0.29934675,-0.47616947,0.017256944,0.38438696
2026-05-10 11:31:47.280,129,0.93706685,-0.44953844,0.29934675,-0.47616947,0.017256944,0.38438696
2026-05-10 11:31:47.290,130,0.93706685,-0.44953844,0.29934675,-0.47616947,0.017256944,0.38438696
2026-05-10 11:31:47.300,131,0.93706685,-0.44953844,0.29934675,-0.47616947000000004,0.017256944,0.38438696
2026-05-10 11:31:47.310,132,0.93706685,-0.44953844,0.29934675,-0.47616947,0.017256944,0.38438696
2026-05-10 11:31:47.320,133,0.93706685,-0.44953844,0.29934675,-0.47616947,0.017256944,0.38438696
2026-05-10 11:31:47.330,134,0.93706685,-0.44953844,0.29934675,-0.47616947,0.017256944,0.38438696
2026-05-10 11:31:47.340,135,0.93706685,-0.44953844,0.29934675,-0.47616947,0.017256944,0.38438696
2026-05-10 11:31:47.350,136,0.93706685,-0.44953844,0.29934675,-0.47616947000000004,0.017256944,0.38438696
2026-05-10 11:31:47.360,137,0.93706685,-0.44953844,0.29934675,-0.47616947,0.017256944,0.38438696
2026-05-10 11:31:47.370,138,0.93706685,-0.44953844,0.29934675,-0.47616947,0.017256944,0.38438696
2026-05-10 11:31:47.380,139,0.93706685,-0.44953844,0.29934675,-0.47616947,0.017256944,0.38438696
2026-05-10 11:31:47.390,140,0.9040772,-0.50380987,0.24312395,-0.47616947,0.017256944,0.38438696
2026-05-10 11:31:47.400,141,0.9040772,-0.50380987,0.24312395,-0.47616947000000004,0.017256944,0.38438696
2026-05-10 11:31:47.410,142,0.9213190425,-0.43307404250000003,0.2565241175,-0.1133918625,-0.09827294715000001,0.2951624475
2026-05-10 11:31:47.420,143,0.924993,-0.31068885,0.2271474,0.3921755,-0.44318274,0.12156218
2026-05-10 11:31:47.430,144,1.744797,0.37660733,0.9240783,1.6507106,0.0664316,-2.0022635
2026-05-10 11:31:47.440,145,1.744797,0.37660733,0.9240783,1.7870099000000002,-0.010308350000000008,-2.0619756000000002
2026-05-10 11:31:47.450,146,1.744797,0.37660733,0.9240783,1.9233092,-0.0870483,-2.1216877
2026-05-10 11:31:47.460,147,1.744797,0.37660732999999996,0.9240783,1.9233092,-0.08704830000000001,-2.1216877
2026-05-10 11:31:47.470,148,1.744797,0.37660732999999996,0.9240783,1.9233092,-0.08704830000000001,-2.1216877
2026-05-10 11:31:47.480,149,1.851998325,0.4226618475,0.92232516,1.919873075,-0.058375812,-2.1882338249999997
2026-05-10 11:31:47.490,150,2.1736023,0.5608254,0.91706574,1.9095647,0.027641652,-2.3878722
2026-05-10 11:31:47.500,151,2.1736023,0.5608254,0.91706574,1.8094846333333334,0.2138028346666667,-2.5735243666666663
2026-05-10 11:31:47.510,152,2.54328855,0.5989069,0.9911859199999999,1.47363605,0.9355401000000001,-3.259806
2026-05-10 11:31:47.520,153,2.9129748,0.6369884,1.0653061,1.3379476,1.284955,-3.5747833
2026-05-10 11:31:47.530,154,2.9129748,0.6369884,1.0653061,1.3379476,1.284955,-3.5747833
2026-05-10 11:31:47.540,155,2.9129748,0.6369884,1.0653061,1.3379476,1.284955,-3.5747833
2026-05-10 11:31:47.550,156,2.9652746333333333,0.6176783333333333,1.1021374999999998,1.2893838,1.5209017000000002,-3.804417766666667
2026-05-10 11:31:47.560,157,3.0698743,0.5790582,1.1758003,1.1922562,1.9927951,-4.2636867
2026-05-10 11:31:47.570,158,3.0698743,0.5790582,1.1758003,1.1922562,1.9927951,-4.2636867
2026-05-10 11:31:47.580,159,3.0698743,0.5790582,1.1758003,1.1922562,1.9927951,-4.2636867
2026-05-10 11:31:47.590,160,3.0698743,0.5790582,1.1758003,1.1922562,1.9927950999999997,-4.2636867
2026-05-10 11:31:47.600,161,3.0698743,0.5790582,1.1758003,1.1922562,1.9927951,-4.2636867
2026-05-10 11:31:47.610,162,3.0698743,0.5790582,1.1758003,1.1922562,1.9927951,-4.2636867
2026-05-10 11:31:47.620,163,3.0698743,0.5790582,1.1758003,1.1922562,1.9927951,-4.2636867
2026-05-10 11:31:47.630,164,3.0698743,0.5790582,1.1758003,1.1922562,1.9927950999999997,-4.2636867
2026-05-10 11:31:47.640,165,3.0698743,0.5790582,1.1758003,1.1922562,1.9927951,-4.2636867
2026-05-10 11:31:47.650,166,3.0698743,0.5790582,1.1758003,1.1922562,1.9927951,-4.2636867
2026-05-10 11:31:47.660,167,3.0698743,0.5790582,1.1758003,1.1922562,1.9927951,-4.2636867
2026-05-10 11:31:47.670,168,3.0698743,0.5790582,1.1758003,1.1922562,1.9927951,-4.2636867
2026-05-10 11:31:47.680,169,3.0698743,0.5790582,1.1758003,1.1922562,1.9927950999999997,-4.2636867
2026-05-10 11:31:47.690,170,3.0698743,0.5790582,1.1758003,1.1922562,1.9927951,-4.2636867
2026-05-10 11:31:47.700,171,3.0698743,0.5790582,1.1758003,1.1922562,1.9927951,-4.2636867
2026-05-10 11:31:47.710,172,3.0698743,0.5790582,1.1758003,1.1922562,1.9927951,-4.2636867
2026-05-10 11:31:47.720,173,3.0698743,0.5790582,1.1758003,1.1922562,1.9927951,-4.2636867
2026-05-10 11:31:47.730,174,3.0698743,0.5790582,1.1758003,1.2649492,2.2659282000000003,-4.66907215
2026-05-10 11:31:47.740,175,3.0698743,0.5790582,1.1758003,1.3376422000000001,2.5390613,-5.0744576
2026-05-10 11:31:47.750,176,3.0698743,0.5790582,1.1758003,1.3376422,2.5390613,-5.0744576
2026-05-10 11:31:47.760,177,3.0698743,0.5790582,1.1758003,1.3376422,2.5390613,-5.0744576
2026-05-10 11:31:47.770,178,2.9634047,0.4850283,1.2427554,1.3376422,2.5390613,-5.0744576
2026-05-10 11:31:47.780,179,2.9634047,0.4850283,1.2427554,1.3376422,2.5390613,-5.0744576
2026-05-10 11:31:47.790,180,2.9634047,0.4850283,1.2427554,1.3376422000000001,2.5390613,-5.0744576
2026-05-10 11:31:47.800,181,2.9634047,0.4850283,1.2427554,1.3376422,2.5390613,-5.0744576
2026-05-10 11:31:47.810,182,2.9634047,0.4850283,1.2427554,1.3376422,2.5390613,-5.0744576
2026-05-10 11:31:47.820,183,2.9634047,0.4850283,1.2427554,1.3376422,2.5390613,-5.0744576
2026-05-10 11:31:47.830,184,2.9634047,0.4850283,1.2427554,1.3376422,2.5390613,-5.0744576
2026-05-10 11:31:47.840,185,2.9634047,0.4850283,1.2427554,1.3376422000000001,2.5390613,-5.0744576
2026-05-10 11:31:47.850,186,2.9634047,0.4850283,1.2427554,1.3376422,2.5390613,-5.0744576
2026-05-10 11:31:47.860,187,2.9634047,0.4850283,1.2427554,1.3376422,2.5390613,-5.0744576
2026-05-10 11:31:47.870,188,2.9634047,0.4850283,1.2427554,1.3376422,2.5390613,-5.0744576
2026-05-10 11:31:47.880,189,2.9634047,0.4850283,1.2427554,1.3376422,2.5390613,-5.0744576
2026-05-10 11:31:47.890,190,2.9634047,0.4850283,1.2427554,1.3376422,2.5390613,-5.0744576
2026-05-10 11:31:47.900,191,2.9634047,0.4850283,1.2427554,1.3376422000000001,2.5390613,-5.0744576
2026-05-10 11:31:47.910,192,2.9634047,0.4850283,1.2427554,1.3376422,2.5390613,-5.0744576
2026-05-10 11:31:47.920,193,2.920246625,0.4712775,1.230483375,1.3376422,2.5390613,-5.0744576
2026-05-10 11:31:47.930,194,2.7907724,0.4300251,1.1936673,1.3376422,2.5390613,-5.0744576
2026-05-10 11:31:47.940,195,2.7907724,0.4300251,1.1936673,1.3376422,2.5390613,-5.0744576
2026-05-10 11:31:47.950,196,2.7907724,0.4300251,1.1936673,1.6443729249999999,2.590488575,-5.51599865
2026-05-10 11:31:47.960,197,2.7907724,0.4300251,1.1936673,1.7466165,2.607631,-5.663179
2026-05-10 11:31:47.970,198,2.7907724,0.4300251,1.1936673,1.7466165,2.607631,-5.663179
2026-05-10 11:31:47.980,199,2.7907724,0.4300251,1.1936673,1.7466165,2.607631,-5.663179
2026-05-10 11:31:47.990,200,2.737583475,0.38779702250000003,1.162110475,2.0279198999999997,2.3424772750000002,-5.8780507
2026-05-10 11:31:48.000,201,2.7343059000000003,0.37172902,1.1578114,2.1216877,2.2540927,-5.949674599999999
2026-05-10 11:31:48.010,202,2.7343059,0.37172902,1.1578114,2.2216405,2.13031615,-6.0078598
2026-05-10 11:31:48.020,203,2.7343059000000003,0.37172902,1.1578114,2.3215933,2.0065396,-6.066045
2026-05-10 11:31:48.030,204,2.968008525,0.3489532825,1.231718125,2.3215933,2.0065396,-6.066045
2026-05-10 11:31:48.040,205,3.0459094,0.34136137,1.2563537,2.3215933,2.0065396,-6.066045
2026-05-10 11:31:48.050,206,3.0459094,0.34136137,1.2563537,2.3215933,2.0065396,-6.066045
2026-05-10 11:31:48.060,207,3.0459094,0.34136137,1.2563537,2.3215933,2.0065396,-6.066045
2026-05-10 11:31:48.070,208,3.0459094000000007,0.34136137,1.2563537,2.3215933,2.0065396,-6.066045
2026-05-10 11:31:48.080,209,3.0459094,0.34136137,1.2563537,2.789058,1.5254833,-6.4686046
2026-05-10 11:31:48.090,210,3.0459094,0.34136137,1.2563537,2.789058,1.5254833,-6.4686046
2026-05-10 11:31:48.100,211,3.0459094,0.34136137,1.2563537,2.789058,1.5254833,-6.4686046
2026-05-10 11:31:48.110,212,3.0459094,0.34136137,1.2563537,2.9385291,1.445421775,-6.693212425
2026-05-10 11:31:48.120,213,3.0459094000000007,0.34136137,1.2563537,2.9883528,1.4187345999999998,-6.7680817
2026-05-10 11:31:48.130,214,3.068045,0.29660267,1.1862278,3.1450398,1.4110987,-7.1752234
2026-05-10 11:31:48.140,215,3.068045,0.29660267,1.1862278,3.1450398,1.4110987,-7.1752234
2026-05-10 11:31:48.150,216,3.068045,0.29660267,1.1862278,3.1450398,1.4110987,-7.1752234
2026-05-10 11:31:48.160,217,3.088656,0.29599288,1.1482987,3.1450398000000006,1.4110987,-7.1752234
2026-05-10 11:31:48.170,218,3.088656,0.29599288,1.1482987,3.173445,1.4909693,-7.4249144
2026-05-10 11:31:48.180,219,3.088656,0.29599288,1.1482987,3.173445,1.4909693,-7.4249144
2026-05-10 11:31:48.190,220,3.088656,0.29599288,1.1482987,3.1734449999999996,1.4909693,-7.4249144
2026-05-10 11:31:48.200,221,3.088656,0.29599288,1.1482987,3.12205595,1.485853325,-7.495354799999999
2026-05-10 11:31:48.210,222,3.088656,0.29599288,1.1482987,2.9678888,1.4705054,-7.706676
2026-05-10 11:31:48.220,223,3.0984125,0.32434818,0.9317616,2.9678888,1.4705054,-7.706676
2026-05-10 11:31:48.230,224,3.0984125,0.32434818,0.9317616000000001,2.9678887999999994,1.4705053999999997,-7.706675999999999
2026-05-10 11:31:48.240,225,3.18259415,0.338129475,0.932005575,2.80669675,1.48844955,-7.791051599999999
2026-05-10 11:31:48.250,226,3.2667758,0.35191077,0.93224955,2.6455047,1.5063937,-7.8754272
2026-05-10 11:31:48.260,227,3.423782,0.3356293425,0.9242917875,2.524209675,1.6006578249999999,-8.01161205
2026-05-10 11:31:48.270,228,2.99494605,-0.13537374750000003,0.97725215,2.305787175,1.9879463999999998,-8.3975265
2026-05-10 11:31:48.280,229,2.8345556,-0.29056573,0.9957898,2.3019947333333337,2.3039801,-8.592278
2026-05-10 11:31:48.290,230,2.8345556,-0.29056573,0.9957898,2.4130704,2.6988027,-8.754768
2026-05-10 11:31:48.300,231,2.8345556,-0.29056573,0.9957898,2.4130704,2.6988027,-8.754768
2026-05-10 11:31:48.310,232,2.8345556,-0.29056573,0.9957898,2.4130704,2.6988027,-8.754768
2026-05-10 11:31:48.320,233,2.29493575,-0.8935125125,1.1576437999999998,3.741511425,2.33423075,-8.265885
2026-05-10 11:31:48.330,234,2.2149869333333334,-1.2203150466666666,1.0740667666666666,5.134220366666667,1.3348933,-7.985790533333334
2026-05-10 11:31:48.340,235,2.1884813,-1.3482493,1.0283527,5.709299,0.8953757,-7.8830633
2026-05-10 11:31:48.350,236,2.1714376499999997,-1.403405,0.9533788124999999,6.9009447,-0.40408736,-7.7822704
2026-05-10 11:31:48.360,237,2.0564616,-1.633723475,0.5612065125,7.213287675,-0.928782365,-7.7816978500000005
2026-05-10 11:31:48.370,238,2.0351799,-1.6553406,0.5054563,7.317402,-1.1036807,-7.781507
2026-05-10 11:31:48.380,239,1.93843635,-1.7516267,0.36508227,7.37596875,-1.58771505,-7.799222
2026-05-10 11:31:48.390,240,1.6248204,-1.951821325,0.18158071250000002,7.4345355,-2.0717494,-7.816937
2026-05-10 11:31:48.400,241,1.5525296,-1.9864575,0.16720487,7.4345355,-2.0717494,-7.816937
2026-05-10 11:31:48.410,242,1.5525296,-1.9864575,0.16720487000000003,7.4345355,-2.0717494,-7.816937
2026-05-10 11:31:48.420,243,1.5525296,-1.9864575,0.16720487,7.4345355,-2.0717494,-7.816937
2026-05-10 11:31:48.430,244,1.5525296,-1.9864575,0.16720487,7.200994125,-2.216753575,-7.75371275
2026-05-10 11:31:48.440,245,1.5525296,-1.9864575,0.16720487,7.0405275000000005,-2.235995875,-7.684875925
2026-05-10 11:31:48.450,246,1.5525296,-1.9864575,0.16720487000000003,6.792669,-2.1487186,-7.5415897
2026-05-10 11:31:48.460,247,1.5525296,-1.9864575,0.16720487,6.792669,-2.1487186,-7.5415897
2026-05-10 11:31:48.470,248,1.2160466,-2.0524979,0.08439517,6.792669,-2.1487186,-7.5415897
2026-05-10 11:31:48.480,249,1.2160466,-2.0524979,0.08439517,6.792669,-2.1487186,-7.5415897
2026-05-10 11:31:48.490,250,0.9860484150000001,-2.018883075,0.03988037750000001,6.55351525,-2.125925675,-7.343936525
2026-05-10 11:31:48.500,251,0.29605386,-1.9180386,-0.09366400000000001,5.836054,-2.0575469,-6.750977
2026-05-10 11:31:48.510,252,0.29605386,-1.9180386,-0.093664,5.836054,-2.0575469,-6.750977
2026-05-10 11:31:48.520,253,0.29605386,-1.9180386,-0.093664,5.836054,-2.0575469,-6.750977
2026-05-10 11:31:48.530,254,0.29605386,-1.9180386,-0.093664,5.836054,-2.0575469,-6.750977
2026-05-10 11:31:48.540,255,-0.13878859333333332,-1.6075937,-0.13636974,3.8198932033333333,-0.8792387000000002,-3.278055466666667
2026-05-10 11:31:48.550,256,-0.5736310466666666,-1.2971488,-0.17907548,1.8037324066666667,0.2990694999999999,0.19486606666666617
2026-05-10 11:31:48.560,257,-1.0084735,-0.9867039,-0.22178122,-0.21242839,1.4773777,3.6677876
2026-05-10 11:31:48.570,258,-1.0084735,-0.9867039,-0.22178122,-0.21242839,1.4773777,3.6677876
2026-05-10 11:31:48.580,259,-0.90018975,-0.95328731,-0.25916144750000003,-0.21242839,1.4773777,3.6677876
2026-05-10 11:31:48.590,260,-0.50926756,-0.8284629475,-0.4078591475,-0.21242839,1.4773777,3.6677876
2026-05-10 11:31:48.600,261,-0.31105474,-0.75473917,-0.5175302,-0.21242839,1.4773777,3.6677876
2026-05-10 11:31:48.610,262,-0.31105474,-0.75473917,-0.5175302,-0.21242839,1.4773777,3.6677876
2026-05-10 11:31:48.620,263,-0.31105474,-0.75473917,-0.5175302,-0.606589195,1.63902785,3.8117228
2026-05-10 11:31:48.630,264,-0.31105474,-0.75473917,-0.5175302,-1.00075,1.8006780000000002,3.955658
2026-05-10 11:31:48.640,265,-0.31105474,-0.75473917,-0.5175302,-1.00075,1.800678,3.955658
2026-05-10 11:31:48.650,266,-0.31105474,-0.75473917,-0.5175302,-1.00075,1.800678,3.955658
2026-05-10 11:31:48.660,267,-0.31105474,-0.75473917,-0.5175302,-1.00075,1.800678,3.955658
2026-05-10 11:31:48.670,268,-0.31105474,-0.75473917,-0.5175302,-1.00075,1.800678,3.955658
2026-05-10 11:31:48.680,269,-0.17877059933333336,-0.6957723233333333,-0.48486567333333336,-1.1628838000000001,1.8533142333333332,4.002134666666667
2026-05-10 11:31:48.690,270,-0.025916148,-0.6302807,-0.41380462,-1.4871514,1.9585867,4.095088
2026-05-10 11:31:48.700,271,-0.025916148,-0.6302807,-0.41380462,-2.3342688,2.0616702,4.270635349999999
2026-05-10 11:31:48.710,272,0.030489581,-0.6211948,-0.33322066,-3.1813862,2.1647537,4.4461827
2026-05-10 11:31:48.720,273,0.11110404,-0.6116363,-0.2196774575,-3.2410219,2.1540254,4.463019699999999
2026-05-10 11:31:48.730,274,0.18373023,-0.6102185,-0.12079973,-3.5056029,2.086766666666666,4.530431233333332
2026-05-10 11:31:48.740,275,0.18373023,-0.6102185,-0.12079973,-3.6769507,2.016619,4.5642323
2026-05-10 11:31:48.750,276,0.276266115,-0.62131672,-0.04305128999999999,-3.6769507,2.016619,4.5642323
2026-05-10 11:31:48.760,277,0.368802,-0.63241494,0.03469715,-3.6769507,2.016619,4.5642323
2026-05-10 11:31:48.770,278,0.368802,-0.63241494,0.03469715,-3.6769507000000003,2.016619,4.5642323
2026-05-10 11:31:48.780,279,0.43264721,-0.62430472,0.062229240000000005,-3.70848655,1.9766073,4.5987463
2026-05-10 11:31:48.790,280,0.49649242,-0.6161945,0.08976133,-3.7400224,1.9365956,4.6332603
2026-05-10 11:31:48.800,281,1.3183087,-0.37361938,0.21586627,-3.711159,2.4755313,4.571257
2026-05-10 11:31:48.810,282,1.3183087,-0.37361938,0.21586627,-3.711159,2.4755313,4.571257
2026-05-10 11:31:48.820,283,1.308552025,-0.3652957175,0.2124514325,-3.711159,2.4755313,4.571257
2026-05-10 11:31:48.830,284,1.133480875,-0.2798638925,0.276845405,-3.7333030000000003,3.11923055,3.982650375
2026-05-10 11:31:48.840,285,1.0848805,-0.25971028,0.3017249,-3.732234,3.1795535,3.896862
2026-05-10 11:31:48.850,286,1.0848805,-0.25971028,0.3017249,-3.732234,3.1795534999999995,3.896862
2026-05-10 11:31:48.860,287,1.0848805,-0.25971028,0.3017249,-3.732234,3.1795535,3.896862
2026-05-10 11:31:48.870,288,1.0848805,-0.25971028,0.3017249,-3.732234,3.1795535,3.896862
2026-05-10 11:31:48.880,289,1.0848805,-0.25971028,0.3017249,-3.732234,3.1795535,3.896862
2026-05-10 11:31:48.890,290,0.97794332,-0.21846804,0.31365649333333334,-3.732234,3.1795534999999995,3.896862
2026-05-10 11:31:48.900,291,0.76406896,-0.13598356,0.33751968,-3.732234,3.1795535,3.896862
2026-05-10 11:31:48.910,292,0.76406896,-0.13598356,0.33751968,-3.732234,3.1795535,3.896862
2026-05-10 11:31:48.920,293,0.76406896,-0.13598356,0.33751968,-3.618612975,2.876373575,3.7946949
2026-05-10 11:31:48.930,294,0.76406896,-0.13598356,0.33751968,-3.5807393,2.7753136,3.7606392
2026-05-10 11:31:48.940,295,0.76406896,-0.13598356,0.33751968,-3.5807393,2.7753136,3.7606392
2026-05-10 11:31:48.950,296,0.4147193225,-0.170894125,0.278217445,-3.155119025,1.54873435,3.8245509
2026-05-10 11:31:48.960,297,0.21684194,-0.21141478,0.23580644,-2.6152668,0.13912456,4.0501895
2026-05-10 11:31:48.970,298,0.21684194,-0.21141478,0.23580644000000003,-2.6152668,0.13912456,4.0501895
2026-05-10 11:31:48.980,299,0.21684194,-0.21141478,0.23580644,-2.6152668,0.13912456,4.0501895
2026-05-10 11:31:48.990,300,0.21684194,-0.21141478,0.23580644,-2.6152668,0.13912456,4.0501895
2026-05-10 11:31:49.000,301,0.11506769,-0.30666426,0.17281497,-1.8944459,-1.6313156,4.8751626
2026-05-10 11:31:49.010,302,0.11506769,-0.30666426,0.17281497,-1.5575918,-2.2210679,5.39252745
2026-05-10 11:31:49.020,303,0.11506769,-0.30666426,0.17281497,-1.4453071,-2.417652,5.564982400000001
2026-05-10 11:31:49.030,304,0.11506769,-0.30666426,0.17281497,-1.4453071,-2.417652,5.5649824
2026-05-10 11:31:49.040,305,0.3776744825,-0.2825164875,0.2454868725,-0.951193525,-2.631034875,5.8641533500000005
2026-05-10 11:31:49.050,306,1.22109252,-0.069973595,0.31745754000000004,-0.460745105,-2.261805,5.652336
2026-05-10 11:31:49.060,307,1.6131428,0.06597946,0.307335,-0.13500121,-1.8214475,5.340795
2026-05-10 11:31:49.070,308,1.6131428,0.06597946,0.307335,-0.13500121,-1.8214475000000003,5.340795
2026-05-10 11:31:49.080,309,1.5034413,0.20299964,0.21184163,0.04550946,-1.3150401,5.041471
2026-05-10 11:31:49.090,310,1.171242125,0.56678611,-0.013064782499999993,-0.98811271,-0.2248747625,5.157917025
2026-05-10 11:31:49.100,311,1.4168509333333335,0.9095652666666666,0.2362942766666667,-2.3941336,0.4923064666666666,5.234911433333333
2026-05-10 11:31:49.110,312,2.1657818,1.363936325,0.5910253074999999,-2.01429,0.09670760275,4.749744625
2026-05-10 11:31:49.120,313,2.37959,1.4991119,0.6871742,-1.8851302,-0.018478673,4.5917215
2026-05-10 11:31:49.130,314,2.5014265,1.6719269,0.7149198,-1.3600914,-0.25228736,3.580892
2026-05-10 11:31:49.140,315,2.5014265,1.6719269,0.7149198,-1.3600914,-0.25228736,3.580892
2026-05-10 11:31:49.150,316,2.2667785666666664,1.7181897666666668,0.6092632,-0.9456194,-0.34681875,2.4846945
2026-05-10 11:31:49.160,317,1.3184305,1.8433392,0.3017249,-0.9456194,-0.34681875,2.4846945
2026-05-10 11:31:49.170,318,1.374851525,1.8873204499999998,0.374366335,-1.408349825,-0.09980011999999999,2.161164925
2026-05-10 11:31:49.180,319,1.5441145999999997,2.0192642,0.59229064,-2.0050125,0.31642818,2.5876253
2026-05-10 11:31:49.190,320,1.5441146,2.0192642,0.59229064,-2.0050125,0.31642818,2.5876253
2026-05-10 11:31:49.200,321,1.5441146,2.0192642,0.59229064,-2.0050125,0.31642818,2.5876253
2026-05-10 11:31:49.210,322,1.5441145999999997,2.0192642,0.59229064,-2.0050125,0.31642818,2.5876253
2026-05-10 11:31:49.220,323,1.5441146,2.0192642,0.59229064,-2.032959525,0.386754045,2.5507442
2026-05-10 11:31:49.230,324,2.158373,2.282648525,1.1201568100000001,-1.744707525,0.343878945,2.314644875
2026-05-10 11:31:49.240,325,2.3631258,2.3704433,1.2961122,-1.6455183,0.32177326,2.240043
2026-05-10 11:31:49.250,326,2.3631258,2.3704433,1.2961122,-1.6455183,0.32177326,2.240043
2026-05-10 11:31:49.260,327,2.6074845,2.466851225,1.479918675,-0.404049192,0.0914388895,1.4456126249999999
2026-05-10 11:31:49.270,328,2.8860068,2.56676575,1.60494125,0.009773844,0.014660766,1.1808025
2026-05-10 11:31:49.280,329,2.9516966,2.5893586,1.6261925,0.009773844,0.014660766,1.1808025
2026-05-10 11:31:49.290,330,2.9516966,2.5893586,1.6261925,0.009773844,0.014660766,1.1808025
2026-05-10 11:31:49.300,331,2.9516966,2.5893586,1.6261925,0.009773844,0.014660766,1.1808025
2026-05-10 11:31:49.310,332,2.9516966,2.5893586,1.6261925,0.009773844,0.014660766,1.1808025
2026-05-10 11:31:49.320,333,2.9516966,2.5893586,1.6261925,0.009773844,0.014660766,1.1808025
2026-05-10 11:31:49.330,334,2.9516966,2.5893586,1.6261925,1.0386237,0.17592919000000004,0.25213462
2026-05-10 11:31:49.340,335,3.16829465,2.6241166000000002,1.49607815,1.0386237,0.17592919,0.25213462
2026-05-10 11:31:49.350,336,3.240494,2.6357026,1.4527067,1.0386237,0.17592919,0.25213462
2026-05-10 11:31:49.360,337,3.293591525,2.54999635,1.25252735,1.651512375,0.2753475025,-0.46910634500000004
2026-05-10 11:31:49.370,338,3.3112906999999994,2.5214276,1.1858009,1.8558086000000003,0.30848694,-0.70952
2026-05-10 11:31:49.380,339,3.29891195,2.50127395,1.1715927750000001,1.90097445,0.317382665,-0.78370195
2026-05-10 11:31:49.390,340,3.2327497,2.3545886,1.0468294249999999,2.31800455,0.37965274000000004,-1.53777695
2026-05-10 11:31:49.400,341,3.2037237,2.2683642,0.96469045,2.5995371,0.41523564,-2.0693061
2026-05-10 11:31:49.410,342,3.2037237,2.2683642,0.96469045,2.5995371,0.41523564,-2.0693061
2026-05-10 11:31:49.420,343,3.1895561333333333,2.210027466666667,0.9143419866666666,2.5995371,0.41523563999999996,-2.0693061
2026-05-10 11:31:49.430,344,3.161221,2.093354,0.81364506,2.5995371,0.41523564,-2.0693061
2026-05-10 11:31:49.440,345,3.161221,2.093354,0.81364506,2.5995371,0.41523564,-2.0693061
2026-05-10 11:31:49.450,346,2.9934673,1.8580962,0.60442555,2.638938,0.45921794,-2.598926
2026-05-10 11:31:49.460,347,2.9934673,1.8580962,0.60442555,2.638938,0.45921794,-2.598926
2026-05-10 11:31:49.470,348,2.8547397,1.7219298,0.46569790000000005,2.638938,0.45921794,-2.598926
2026-05-10 11:31:49.480,349,2.8547397,1.7219298,0.4656979,2.638938,0.45921794,-2.598926
2026-05-10 11:31:49.490,350,2.783638,1.6443643,0.42017695,2.3293819,0.481743605,-3.10976235
2026-05-10 11:31:49.500,351,2.7125363,1.5667988,0.374656,2.1870503,0.49510628,-3.2473598
2026-05-10 11:31:49.510,352,2.6043186333333335,1.4583777999999998,0.3564029066666667,1.6671021666666668,0.8301658933333332,-3.411478866666666
2026-05-10 11:31:49.520,353,2.5502098,1.4041673,0.34727636,1.4071281,0.9976957,-3.4935384
2026-05-10 11:31:49.530,354,2.249064175,1.148039575,0.546495325,1.267965375,0.9936105,-3.594331075
2026-05-10 11:31:49.540,355,1.9274144249999998,0.86131555,0.7045838125,1.8350773999999999,0.604260265,-3.896174825
2026-05-10 11:31:49.550,356,1.6727196,0.6346102,0.58320475,2.2000313,0.6027713,-4.0999746
2026-05-10 11:31:49.560,357,1.4682259,0.4952728,0.40993245,2.184416,0.8134816149999999,-4.225469375
2026-05-10 11:31:49.570,358,1.2637322,0.3559354,0.23666015,2.0920608,1.16492,-4.420221
2026-05-10 11:31:49.580,359,1.0408534,0.23568448,0.21641506,1.9566014,1.3434454,-4.480544
2026-05-10 11:31:49.590,360,1.0408534,0.23568448,0.21641506,1.9566014,1.3434454,-4.480544
2026-05-10 11:31:49.600,361,1.0408534,0.23568448,0.21641506,1.9566014,1.3434454,-4.480544
2026-05-10 11:31:49.610,362,1.0408534,0.23568448,0.21641506,1.9566014,1.3434454,-4.480544
2026-05-10 11:31:49.620,363,0.952677525,0.1828155425,0.2177566,1.940947975,1.326150275,-4.395175500000001
2026-05-10 11:31:49.630,364,0.6881499,0.02420873,0.22178122,1.8939877,1.2742649,-4.13907
2026-05-10 11:31:49.640,365,0.6881499,0.02420873,0.22178122,1.8939877,1.2742649,-4.13907
2026-05-10 11:31:49.650,366,0.64665358,-0.041526810000000004,0.24772786,1.8925369,1.23639125,-4.017966
2026-05-10 11:31:49.660,367,0.60515726,-0.10726235,0.2736745,1.8910861,1.1985176,-3.896862
2026-05-10 11:31:49.670,368,0.5347263,-0.32233587,0.39112037000000005,2.2288945,1.0955868,-3.4613152
2026-05-10 11:31:49.680,369,0.5347263,-0.32233587,0.39112037,2.2288945,1.0955868,-3.4613152
2026-05-10 11:31:49.690,370,0.573143175,-0.35970085500000004,0.3940931075,2.2288945,1.0955868,-3.4613152
2026-05-10 11:31:49.700,371,0.61842023,-0.382888185,0.39883424,2.4356342499999997,1.0037661249999998,-3.347885125
2026-05-10 11:31:49.710,372,0.66699014,-0.401578305,0.3887269425,2.67402435,0.83058582,-3.384842375
2026-05-10 11:31:49.720,373,0.6723563,-0.4042309,0.38410777,2.7125469999999994,0.79198676,-3.413973
2026-05-10 11:31:49.730,374,0.6723563,-0.4042309,0.38410777,2.712547,0.79198676,-3.413973
2026-05-10 11:31:49.740,375,0.6446108,-0.43825728,0.36593598,2.712547,0.79198676,-3.413973
2026-05-10 11:31:49.750,376,0.6446108,-0.43825728,0.36593598,2.712547,0.79198676,-3.413973
2026-05-10 11:31:49.760,377,0.6446108,-0.43825728,0.36593598,2.7251461499999996,0.7653377800000001,-3.4686455
2026-05-10 11:31:49.770,378,0.6446108,-0.43825728,0.36593598,2.7377453,0.7386887999999999,-3.523318
2026-05-10 11:31:49.780,379,0.5824730300000001,-0.50981634,0.35721595500000003,2.6734517999999996,0.80664755,-3.54851625
2026-05-10 11:31:49.790,380,0.52033526,-0.5813754,0.34849593,2.5821273,1.0196868,-3.500716
2026-05-10 11:31:49.800,381,0.43065013999999996,-0.75553185,0.391486245,2.8975629749999996,0.83493825,-3.368540125
2026-05-10 11:31:49.810,382,0.30184686,-0.90511376,0.3594112,3.0027081999999994,0.7733554000000001,-3.3244814999999996
2026-05-10 11:31:49.820,383,0.30184686,-0.90511376,0.3594112,3.0027082,0.7733554,-3.3244815
2026-05-10 11:31:49.830,384,0.30184686,-0.90511376,0.3594112,3.0027082,0.7733554,-3.3244815
2026-05-10 11:31:49.840,385,0.30184686,-0.90511376,0.3594112,3.0027082,0.7733554,-3.3244815
2026-05-10 11:31:49.850,386,0.30184686,-0.90511376,0.3594112,3.0027082,0.7733554,-3.3244815
2026-05-10 11:31:49.860,387,0.30184686,-0.90511376,0.3594112,3.0027082,0.7733554,-3.3244815
2026-05-10 11:31:49.870,388,0.30184686,-0.90511376,0.3594112,3.0027082,0.7733554,-3.3244815
2026-05-10 11:31:49.880,389,0.30184686,-0.90511376,0.3594112,3.0027082,0.7733554,-3.3244815
2026-05-10 11:31:49.890,390,0.30184686,-0.90511376,0.3594112,3.0027081999999994,0.7733554000000001,-3.3244814999999996
2026-05-10 11:31:49.900,391,0.30184686,-0.90511376,0.3594112,3.0027082,0.7733554,-3.3244815
2026-05-10 11:31:49.910,392,0.2778515625,-0.9123245449999999,0.3439529825,3.2901201,0.5154176,-3.2226195
2026-05-10 11:31:49.920,393,-0.009268837499999998,-0.9046411999999999,0.1102045985,3.447952575,0.08750645750000001,-3.036611175
2026-05-10 11:31:49.930,394,-0.08098034,-0.8948693,0.047746688,3.5005633999999994,-0.05513059,-2.9746083999999997
2026-05-10 11:31:49.940,395,-0.19586508,-0.842854,-0.09957898,3.5005634,-0.05513059,-2.9746084
2026-05-10 11:31:49.950,396,-0.23855051,-0.7943756,-0.23105007,2.9972103,-0.61758476,-2.3086126
2026-05-10 11:31:49.960,397,-0.23855051,-0.7943756,-0.23105007,2.9972103,-0.61758476,-2.3086126
2026-05-10 11:31:49.970,398,-0.23855051,-0.7943756,-0.23105007,2.9972103,-0.61758476,-2.3086126
2026-05-10 11:31:49.980,399,-0.23855050999999997,-0.7943756,-0.23105007,2.9972103000000003,-0.61758476,-2.3086126
2026-05-10 11:31:49.990,400,-0.23855051,-0.7943756,-0.23105007,2.9972103,-0.61758476,-2.3086126
2026-05-10 11:31:50.000,401,-0.206902315,-0.7455312999999999,-0.307243535,2.9972103,-0.61758476,-2.3086126
2026-05-10 11:31:50.010,402,-0.1291081425,-0.679125,-0.41641147749999996,1.8303813500000001,-0.39912406500000003,-1.7066811
2026-05-10 11:31:50.020,403,-0.11372615000000001,-0.6732710000000001,-0.42740297,1.5395331,-0.2959642,-1.599856
2026-05-10 11:31:50.030,404,-0.11372615,-0.673271,-0.42740297,1.5395331,-0.2959642,-1.599856
2026-05-10 11:31:50.040,405,-0.11372615,-0.673271,-0.42740297,1.5395331,-0.2959642,-1.599856
2026-05-10 11:31:50.050,406,-0.11372615,-0.673271,-0.42740297,1.5395331,-0.2959642,-1.599856
2026-05-10 11:31:50.060,407,-0.116866575,-0.6658925,-0.43350089999999997,1.27930455,-0.24930937,-1.56114245
2026-05-10 11:31:50.070,408,-0.12000700000000002,-0.658514,-0.43959883,0.9040297,-0.21120665333333333,-1.4933619
2026-05-10 11:31:50.080,409,-0.19851767000000003,-0.644961425,-0.42063429,0.42722389,-0.31413744,-1.3036628
2026-05-10 11:31:50.090,410,-0.26214942,-0.6463792,-0.39288875,0.18051068,-0.399964,-1.1720977
2026-05-10 11:31:50.100,411,-0.36999109,-0.6071086,-0.29291342,-0.039133555,-0.6922630350000001,-0.8890380175
2026-05-10 11:31:50.110,412,-0.52057913,-0.51295676,-0.188090245,0.005497787,-0.6238461,0.03268129
2026-05-10 11:31:50.120,413,-0.43075684,-0.43905002,-0.32678735,0.24556783000000001,-0.12385293000000001,1.5709927
2026-05-10 11:31:50.130,414,-0.34706293,-0.35023385,-0.4544929825,-0.12721269,0.3912592,2.517223
2026-05-10 11:31:50.140,415,-0.37685126,-0.254984375,-0.57927157,-0.32666018,0.49991684999999997,2.7446175
2026-05-10 11:31:50.150,416,-0.2935740466666667,-0.2235496233333333,-0.48063776666666663,-1.2127202233333334,0.7113016999999999,4.491335666666667
2026-05-10 11:31:50.160,417,-0.22812307,-0.21946402,-0.4378304,-1.5560265,0.7626653,5.2509975
2026-05-10 11:31:50.170,418,-0.22812307,-0.21946402,-0.4378304,-1.6567429,0.812603525,5.552726875
2026-05-10 11:31:50.180,419,1.55624925,-0.0059149775000000016,-0.309194865,-2.3608414,0.9179777499999999,6.61406705
2026-05-10 11:31:50.190,420,1.9858475,0.06555261,-0.30215177,-2.5576418666666667,0.8433503666666667,5.993911566666667
2026-05-10 11:31:50.200,421,1.91712405,0.056314263,-0.34142235,-2.9585730999999997,0.7845037,5.75053265
2026-05-10 11:31:50.210,422,1.39265755,-0.10819229100000001,-0.28323298750000003,-3.42088355,0.666148575,5.92741625
2026-05-10 11:31:50.220,423,1.2407432,-0.15994836,-0.25074634,-3.5350008500000003,0.3646101975,6.4385196
2026-05-10 11:31:50.230,424,1.2407432,-0.15994836,-0.25074634,-3.5573738,0.27275133,6.586349000000001
2026-05-10 11:31:50.240,425,1.2407432,-0.15994836,-0.25074634,-3.5573738,0.27275133,6.586349
2026-05-10 11:31:50.250,426,1.9898570000000002,0.11009788675,-0.039605969500000004,-3.46998185,0.0382936155,6.776252
2026-05-10 11:31:50.260,427,2.280377,0.22915971,-0.04396598,-3.3802992,-0.146607663,6.776023
2026-05-10 11:31:50.270,428,2.1947623333333333,0.34815039,-0.17478662,-3.378339366666667,-0.2671517466666667,6.4825021666666665
2026-05-10 11:31:50.280,429,2.151955,0.40764573,-0.24019694,-3.4955237,-0.2947425,6.0225205
2026-05-10 11:31:50.290,430,2.151955,0.40764573,-0.24019694,-3.4955237,-0.2947425,6.0225205
2026-05-10 11:31:50.300,431,2.151955,0.40764573,-0.24019694,-3.4955237,-0.2947425,6.0225205
2026-05-10 11:31:50.310,432,2.2691111250000002,0.5641640275,0.01992493749999999,-4.249063925,0.17634916499999997,5.795164
2026-05-10 11:31:50.320,433,2.6127542,0.8064291933333334,0.3719119466666667,-4.155105333333334,0.39421170666666666,4.924592
2026-05-10 11:31:50.330,434,1.55076125,1.11683345,0.8848991500000001,-1.42530131,-0.9423360300000001,2.8420505499999997
2026-05-10 11:31:50.340,435,0.6810763,1.1188458,0.9354814,-0.32406402,-1.6238326,2.447737
2026-05-10 11:31:50.350,436,0.6810763,1.1188458,0.9354814,-0.32406402,-1.6238326,2.447737
2026-05-10 11:31:50.360,437,0.617490275,1.0365239075,0.69924810725,0.38774668500000004,-1.8210657000000001,2.82471725
2026-05-10 11:31:50.370,438,1.4352666,1.1207361,-1.1277487,1.3439035,-1.0535898,4.3647847
2026-05-10 11:31:50.380,439,1.8887687,1.3486153,-0.8263897,-3.0575333,0.49128836,3.25469
2026-05-10 11:31:50.390,440,1.587424925,1.351405075,-0.227147405,-4.204814625,0.5040401925,1.9244545875
2026-05-10 11:31:50.400,441,1.2711108,1.3225162,0.19982873999999998,-5.013982,0.48670688,0.70005155
2026-05-10 11:31:50.410,442,1.2711108,1.3225162,0.19982874,-5.013982,0.48670688,0.70005155
2026-05-10 11:31:50.420,443,1.149076225,1.2903954,0.333266405,-5.013982,0.48670688,0.70005155
2026-05-10 11:31:50.430,444,0.7829725,1.194033,0.7335794,-4.971832225,0.44077745,0.3350214125
2026-05-10 11:31:50.440,445,0.7829725,1.194033,0.7335794,-4.4001006,0.30337096249999995,0.2045253225
2026-05-10 11:31:50.450,446,0.7680529666666667,1.1425666,1.0206286666666666,-4.2142067,0.26267207,0.20158553
2026-05-10 11:31:50.460,447,0.8105046499999999,1.119440275,1.26161325,-3.989293775,0.208114165,0.19387335500000002
2026-05-10 11:31:50.470,448,1.1025644,1.141575775,1.7272806,-1.8162551,-0.2452624,-0.011148291
2026-05-10 11:31:50.480,449,1.1500062,1.1463474,1.7850431,-1.8162551,-0.2452624,-0.011148291
2026-05-10 11:31:50.490,450,1.3012954,1.1626288,1.7857139,-0.9796751333333334,-0.34330626666666664,-0.10990484366666668
2026-05-10 11:31:50.500,451,1.8505348,1.2789161,1.6338758,0.8000808,-0.36377025,-0.34376442
2026-05-10 11:31:50.510,452,2.0156815,1.3279432999999998,1.58279045,1.151481,-0.3030655125,-0.4556673
2026-05-10 11:31:50.520,453,2.20207955,1.4152502249999999,1.45814905,1.60390305,-0.1745547375,-0.72189002
2026-05-10 11:31:50.530,454,2.913686333333333,1.6392013333333333,0.6734539433333332,2.981022433333333,0.8884017200000001,-2.1634811
2026-05-10 11:31:50.540,455,3.0351772,1.615948,0.5401535,3.015689,1.1221595,-2.342821
2026-05-10 11:31:50.550,456,3.0351772,1.615948,0.5401535,3.015689,1.1221595,-2.342821
2026-05-10 11:31:50.560,457,3.0351772,1.615948,0.5401535,2.8515189,1.2104294,-2.8179214
2026-05-10 11:31:50.570,458,3.0351772,1.615948,0.5401535,2.8515189,1.2104294,-2.8179214
2026-05-10 11:31:50.580,459,3.2412867999999997,1.5488099,0.2681864,2.8515189,1.2104294,-2.8179214
2026-05-10 11:31:50.590,460,3.2412868,1.5488099,0.2681864,2.8515189,1.2104294,-2.8179214
2026-05-10 11:31:50.600,461,3.2412868,1.5488099,0.2681864,2.8515189,1.2104294,-2.8179214
2026-05-10 11:31:50.610,462,3.28031325,1.4818851999999998,0.0836329245,2.7777569499999997,1.15476435,-2.93490205
2026-05-10 11:31:50.620,463,3.2912285,1.4485601,0.015427729,2.422997,0.86391616,-3.3455563
2026-05-10 11:31:50.630,464,3.291797666666666,1.4176233333333332,-0.020367042666666668,2.422997,0.86391616,-3.3455563
2026-05-10 11:31:50.640,465,3.2759228250000003,1.328065275,-0.11192726450000001,1.8349628,0.5864306225,-3.700277975
2026-05-10 11:31:50.650,466,3.04401915,1.1101258,-0.10573788,0.806189375,0.362166725,-4.139986325
2026-05-10 11:31:50.660,467,2.73467175,0.90523575,0.041679265,0.042684200000000005,0.40286562000000004,-4.3630285
2026-05-10 11:31:50.670,468,2.1821396,0.55686176,0.3878885,-1.0358747,0.8614726999999999,-4.6755624
2026-05-10 11:31:50.680,469,2.1821396,0.55686176,0.3878885,-1.0358747,0.8614727,-4.6755624
2026-05-10 11:31:50.690,470,2.090244,0.49643141,0.46914325,-0.9637162499999999,0.9831875999999999,-4.6971719499999995
2026-05-10 11:31:50.700,471,1.9983484,0.43600106,0.550398,-0.8915578,1.1049025,-4.7187815
2026-05-10 11:31:50.710,472,1.8216306,0.30861557,0.6213777,-0.5856671,1.2759448,-4.789642
2026-05-10 11:31:50.720,473,1.7770091,0.2840714575,0.615051115,-0.4604778915,1.29167455,-4.81724535
2026-05-10 11:31:50.730,474,1.6431446,0.21043912,0.59607136,-0.084910266,1.3388638,-4.9000554
2026-05-10 11:31:50.740,475,1.6431446,0.21043912,0.59607136,-0.084910266,1.3388638,-4.9000554
2026-05-10 11:31:50.750,476,1.6431446,0.21043912,0.59607136,-0.084910266,1.3388637999999997,-4.9000554
2026-05-10 11:31:50.760,477,1.28620315,-0.015946051500000002,0.52492393,1.4197272,0.909807445,-4.77246085
2026-05-10 11:31:50.770,478,1.0038391,-0.2095854,0.5086882,1.2330315,0.9810496,-4.8317914
2026-05-10 11:31:50.780,479,0.96874555,-0.34427313,0.40909397750000004,1.86542975,0.8202775,-4.5575128750000005
2026-05-10 11:31:50.790,480,0.9460916999999999,-0.5792411,0.21873226999999998,2.595872,0.7162395,-4.2267294
2026-05-10 11:31:50.800,481,0.9460917,-0.5792411,0.21873227,2.60503485,0.808251075,-4.2636867
2026-05-10 11:31:50.810,482,0.97920345,-0.65320885,0.16461326,2.6141977,0.90026265,-4.300644
2026-05-10 11:31:50.820,483,1.0123152,-0.7271766,0.11049425,2.6141977,0.90026265,-4.300644
2026-05-10 11:31:50.830,484,1.0261574,-0.8467566999999999,0.04890529400000001,2.6141977,0.90026265,-4.300644
2026-05-10 11:31:50.840,485,0.94554297,-0.9872527,0.018019345,2.479272925,1.0541625375,-4.72256095
2026-05-10 11:31:50.850,486,0.86492854,-1.1277487,-0.012866604,2.378862,1.1672108,-5.0814824
2026-05-10 11:31:50.860,487,0.81459023,-1.188453475,-0.0179736095,2.4231498,1.1803443,-5.333159
2026-05-10 11:31:50.870,488,0.6635753,-1.3705678,-0.033294626,2.4231498,1.1803443,-5.333159
2026-05-10 11:31:50.880,489,0.6635753,-1.3705678,-0.033294626,2.4921775333333334,1.0909543666666668,-5.4538048
2026-05-10 11:31:50.890,490,0.0830078865,-1.745940325,-0.2725159,2.5266914,1.0462594,-5.5141277
2026-05-10 11:31:50.900,491,-0.027989438,-1.7986416,-0.32007965,2.5266914,1.0462594,-5.5141277
2026-05-10 11:31:50.910,492,-0.126440304,-1.7944035,-0.368161705,2.36840095,0.6057492235,-5.056818775
2026-05-10 11:31:50.920,493,-0.49246776,-1.5189911,-0.61668235,1.3643675,-0.19211712,-3.6151006
2026-05-10 11:31:50.930,494,-0.43362287,-1.349713,-0.58289987,1.3643675,-0.19211712,-3.6151006
2026-05-10 11:31:50.940,495,-0.43362287,-1.349713,-0.58289987,0.729487625,-0.13862823000000002,-3.117665275
2026-05-10 11:31:50.950,496,-0.33463335666666666,-1.2680415333333332,-0.49139046999999997,-0.2582433,0.21930063,-2.431549
2026-05-10 11:31:50.960,497,-0.2851386,-1.2272058,-0.44563577,-0.2582433,0.21930063,-2.431549
2026-05-10 11:31:50.970,498,-0.2851386,-1.2272058,-0.44563577,-0.2582433,0.21930063,-2.431549
2026-05-10 11:31:50.980,499,-0.2766624925,-1.203332425,-0.4251010275,-0.29390255,0.2494239225,-2.40371645
2026-05-10 11:31:50.990,500,-0.35431946,-0.8988481575,-0.3050787675,-0.466242905,0.5888359175,-1.705077625
2026-05-10 11:31:51.000,501,-0.5086882,-0.33916613,-0.20171909,-0.22663099866666667,0.29362256433333334,-1.0874928333333334
2026-05-10 11:31:51.010,502,-0.49001333,-0.296648405,-0.2150430425,0.12255483299999999,-0.31848987025,-0.37377315
2026-05-10 11:31:51.020,503,-0.43398872,-0.16909523,-0.2550149,0.5900958,-1.2226468,0.6348417
2026-05-10 11:31:51.030,504,-0.30044435333333336,-0.15368783,-0.31900236666666665,0.5900958,-1.2226468,0.6348417
2026-05-10 11:31:51.040,505,-0.23367217,-0.14598413,-0.3509961,0.5900958,-1.2226468,0.6348417
2026-05-10 11:31:51.050,506,-0.0866514,-0.10299382,-0.44429418,0.33414328,-1.116509,2.2119431
2026-05-10 11:31:51.060,507,0.14776777624999998,0.10465549399999999,-0.51449648,-0.6238843225,-0.26038131750000004,3.5193856500000003
2026-05-10 11:31:51.070,508,0.6859953166666667,0.05197458,-0.27328829813333333,-1.3106114,-0.10766500533333333,5.3177856
2026-05-10 11:31:51.080,509,0.85072035,-0.10982348,-0.0033538544,-0.788627,-0.6160576,5.6436315
2026-05-10 11:31:51.090,510,0.85072035,-0.10982348,-0.0033538544,-0.788627,-0.6160576,5.6436315
2026-05-10 11:31:51.100,511,0.85072035,-0.10982348,-0.0033538544,-0.788627,-0.6160576,5.6436315
2026-05-10 11:31:51.110,512,0.893390535,-0.18158072,-0.0866361536,-0.788627,-0.6160576,5.6436315
2026-05-10 11:31:51.120,513,0.90761393,-0.2054998,-0.11439692,-0.788627,-0.6160576,5.643631500000001
2026-05-10 11:31:51.130,514,0.956336265,-0.22047018499999999,-0.183394845,-0.35224016999999996,-0.7002042875,6.0602032999999995
2026-05-10 11:31:51.140,515,1.1074731249999998,-0.2185645875,-0.2824859925,-0.2377792975,-0.68966685,6.34887525
2026-05-10 11:31:51.150,516,1.40157565,-0.11833008,-0.29599289,-0.781373,-0.52152619,6.324746149999999
2026-05-10 11:31:51.160,517,2.0245794833333335,0.2417620583333333,-0.24499397666666667,-0.2882775,0.041335239999999995,3.2618677666666662
2026-05-10 11:31:51.170,518,2.6475833166666667,0.6018541966666666,-0.19399506333333333,0.20481799999999994,0.60419667,0.19898938333333316
2026-05-10 11:31:51.180,519,3.27058715,0.9619463349999999,-0.14299615,0.6979135,1.1670581,-2.863889
2026-05-10 11:31:51.190,520,3.363001,0.95401907,-0.11756783,0.6979135,1.1670581,-2.863889
2026-05-10 11:31:51.200,521,3.373215,0.9277370549999999,-0.101774227,0.369344395,1.145525025,-3.244152575
2026-05-10 11:31:51.210,522,3.3118394666666666,0.86818075,-0.06980081933333333,0.20677789,1.1530081,-3.4724634
2026-05-10 11:31:51.220,523,3.1686604,0.80163217,-0.03744121,0.14635313466666666,1.2053389,-3.610620766666667
2026-05-10 11:31:51.230,524,2.292979433333333,0.5796069833333334,0.06282886933333333,-0.16050485,1.4705053999999997,-4.307516
2026-05-10 11:31:51.240,525,2.0515833,0.53350675,0.09226148,-0.16749161,1.359175175,-4.258265375
2026-05-10 11:31:51.250,526,1.1893783,0.030652198000000005,0.1833643633333333,1.3333152566666666,1.2410236666666667,-4.6251153333333335
2026-05-10 11:31:51.260,527,2.469412325,0.5269210042500001,0.032883018374999996,1.6362026,1.4567609,-4.696027
2026-05-10 11:31:51.270,528,2.9422448,0.7224812,-0.0069516255,-0.084146686,1.4544702,-4.1502185
2026-05-10 11:31:51.280,529,2.9422447999999997,0.7224812000000002,-0.0069516255,-0.08414668600000001,1.4544702,-4.1502185
2026-05-10 11:31:51.290,530,2.9422448,0.7224812,-0.0069516255,-0.084146686,1.4544702,-4.1502185
2026-05-10 11:31:51.300,531,1.6472304,0.30532268,0.26379588,0.95905846,0.9682214,-4.545601
2026-05-10 11:31:51.310,532,1.6472304,0.30532268,0.26379588,0.95905846,0.9682214,-4.545601
2026-05-10 11:31:51.320,533,1.6472304,0.30532268,0.26379588,0.95905846,0.9682214,-4.545601
2026-05-10 11:31:51.330,534,1.6472304,0.30532268,0.26379588,1.04259427,1.006934975,-4.574082574999999
2026-05-10 11:31:51.340,535,1.4713207125,0.1792939875,0.187785347,1.3952162000000001,1.2345968,-4.674226225
2026-05-10 11:31:51.350,536,0.94359165,-0.19879209,-0.040246252,1.7245743666666666,1.5421801666666666,-4.746321
2026-05-10 11:31:51.360,537,0.94359165,-0.19879209,-0.040246252,1.7362317,1.5286902,-4.76032
2026-05-10 11:31:51.370,538,0.88852745,-0.25586858,-0.056161813,1.7695238500000001,1.38284615,-4.7422995
2026-05-10 11:31:51.380,539,0.88852745,-0.25586858,-0.056161813,1.8694004,0.8863655,-4.6644144
2026-05-10 11:31:51.390,540,0.88690135,-0.30570889333333334,-0.055673979000000005,1.8694004,0.8863655,-4.6644144
2026-05-10 11:31:51.400,541,0.8860883,-0.33062905,-0.055430062,1.876807125,0.849904475,-4.663841725
2026-05-10 11:31:51.410,542,0.89206425,-0.3398216575,-0.050323056500000005,1.8990273,0.7405214,-4.6621237
2026-05-10 11:31:51.420,543,0.9099921,-0.36739948,-0.03500204,1.8990273,0.7405214,-4.6621237
2026-05-10 11:31:51.430,544,0.9099920999999999,-0.36739948,-0.03500204,1.8990273,0.7405214,-4.6621237
2026-05-10 11:31:51.440,545,0.93932313,-0.47085065249999997,0.020458511999999998,2.0271564,0.35476,-4.7395506
2026-05-10 11:31:51.450,546,0.89075322,-0.5550628799999999,-0.004390499499999999,1.99607855,0.3458261,-4.756655
2026-05-10 11:31:51.460,547,0.84474444,-0.605889,-0.035367917,1.9650007,0.3368922,-4.7737594
2026-05-10 11:31:51.470,548,0.7394333999999999,-0.65394056,-0.077809416,1.9650007,0.33689220000000003,-4.7737594
2026-05-10 11:31:51.480,549,0.6121851150000001,-0.687067535,-0.065003795,1.77582345,0.3755676,-4.555642
2026-05-10 11:31:51.490,550,0.52899426,-0.71876144,-0.012134855,1.674687,0.3733914,-4.335616
2026-05-10 11:31:51.500,551,0.49187828666666666,-0.7392911133333332,0.017866894999999997,1.6746869999999998,0.3733914,-4.335616
2026-05-10 11:31:51.510,552,0.39964221250000004,-0.7738409125,0.07521780249999999,1.9356792,0.08811731,-3.7417023
2026-05-10 11:31:51.520,553,0.32799169,-0.7970587375,0.0953104375,2.08492125,-0.0007254049999999984,-3.604295825
2026-05-10 11:31:51.530,554,0.18671821,-0.84242725,0.11323831,2.5326474,-0.26725355,-3.1920764
2026-05-10 11:31:51.540,555,0.18671821,-0.84242725,0.11323831,2.5326474,-0.26725355,-3.1920764
2026-05-10 11:31:51.550,556,0.18671821,-0.84242725,0.11323831,1.6523905,-1.7363845,-0.15027285
2026-05-10 11:31:51.560,557,-0.056116067500000005,-0.7755483375,0.021403682499999993,1.089745425,-1.366123795,0.0948368275
2026-05-10 11:31:51.570,558,-0.7846189,-0.5749116,-0.2541002,-0.5981898,-0.25534168,0.83016586
2026-05-10 11:31:51.580,559,-0.9618854,-0.6447328,-0.17659567,-1.534646175,1.3418799799999999,1.9662607149999998
2026-05-10 11:31:51.590,560,-0.497590013,-0.7379089,-0.050826140000000006,-1.9775998000000001,1.5677856000000001,4.2009202
2026-05-10 11:31:51.600,561,1.2050093,-0.3184942,-0.17244908,-1.2437216,0.27947086,6.339712
2026-05-10 11:31:51.610,562,1.2050093,-0.3184942,-0.17244908,-1.2437216,0.27947086,6.339712
2026-05-10 11:31:51.620,563,1.2050093,-0.3184942,-0.17244908,-2.9663615,0.43111816,6.6196413000000005
2026-05-10 11:31:51.630,564,1.47737275,-0.138422715,-0.03722778,-2.9663615,0.43111816,6.6196413
2026-05-10 11:31:51.640,565,1.7600417,0.09284078,0.05774727,-2.8147142499999998,0.209832218,6.4657031499999995
2026-05-10 11:31:51.650,566,1.7703472,0.14403279,0.01750102,-2.4559836,-0.17531833,5.773593
2026-05-10 11:31:51.660,567,1.5951540333333334,0.18173823999999997,0.09368433333333333,-2.167044466666667,-0.2931644066666667,5.584988266666667
2026-05-10 11:31:51.670,568,1.416805225,0.298066165,0.21261912,-0.989945325,-0.47815476500000004,5.420360125
2026-05-10 11:31:51.680,569,1.4258149,0.31770146,0.2172078,-0.7377725,-0.4859433,5.418833
2026-05-10 11:31:51.690,570,1.4988679333333332,0.41022717333333336,0.18659625666666668,-0.5794056900000001,-0.41976623333333335,5.398827
2026-05-10 11:31:51.700,571,2.069236525,1.28449571,-0.60201686325,-0.7881307375,-0.0874682645,4.147927625
2026-05-10 11:31:51.710,572,2.0473144,1.4557557,-0.8249872,-1.508875375,0.17092772950000001,3.341089175
2026-05-10 11:31:51.720,573,2.0473144,1.4557557,-0.8249872,-2.3070853,0.4812091,2.7522533
2026-05-10 11:31:51.730,574,1.8774874666666665,1.4212414666666666,-0.6335329333333334,-3.9104538000000004,1.0259482,1.8730656
2026-05-10 11:31:51.740,575,1.352213,1.3194063,-0.03744121,-4.121355,1.0512991,1.7492126
2026-05-10 11:31:51.750,576,1.352213,1.3194063,-0.03744121,-4.121355,1.0512991,1.7492126
2026-05-10 11:31:51.760,577,1.1732391,1.2983074,0.5450318,-4.067752,0.7121162,1.6175711
2026-05-10 11:31:51.770,578,1.2632444333333332,1.3285124,0.7418319066666667,-3.9123376333333333,0.5738061099999999,1.6309083666666666
2026-05-10 11:31:51.780,579,1.3082471,1.3436149,0.84023196,-3.6015089,0.29718593,1.6575829
2026-05-10 11:31:51.790,580,1.46929305,1.38944075,0.9254808299999999,-2.86969225,0.04573852499999999,1.34756875
2026-05-10 11:31:51.800,581,1.630339,1.4352666,1.0107297,-2.1378756,-0.20570888,1.0375546
2026-05-10 11:31:51.810,582,2.06467825,1.639653525,0.990377925,-1.7013742500000002,-0.13813190749999998,0.6766477750000001
2026-05-10 11:31:51.820,583,2.3784313,1.8038248,1.1310416,-1.0691669,0.07437284,0.1516473
2026-05-10 11:31:51.830,584,2.7502519,1.88282325,1.3255347,0.13209962500000005,0.36174676250000004,-0.35999054999999996
2026-05-10 11:31:51.840,585,3.04124455,1.912337175,1.3516032999999998,1.4999414500000001,0.5124013924999999,-1.124068375
2026-05-10 11:31:51.850,586,3.359992833333333,1.8396601666666665,1.0671964466666666,2.6128235,0.5844453,-2.4254405
2026-05-10 11:31:51.860,587,3.5502071,1.7852261,0.84450054,2.584952725,0.566615675,-2.569375625
2026-05-10 11:31:51.870,588,3.615302625,1.523030925,-0.04895102700000001,2.2318725,0.48456885,-3.2103260000000002
2026-05-10 11:31:51.880,589,3.6192968,1.5036243,-0.090249166,1.9624046,0.4560109,-3.419471
2026-05-10 11:31:51.890,590,3.6165729333333334,1.4579102333333334,-0.09671295933333335,1.9624046,0.45601090000000005,-3.419471
2026-05-10 11:31:51.900,591,3.6111252,1.3664821,-0.109640546,1.4479034,0.4804455,-3.766137
2026-05-10 11:31:51.910,592,3.4958746,1.194216,-0.034636166,1.333060715,0.516066575,-3.8547124
2026-05-10 11:31:51.920,593,3.4958746,1.194216,-0.034636166,0.98853266,0.6229298,-4.1204386
2026-05-10 11:31:51.930,594,2.6852785,0.65221794,0.2458984885,0.6925684625,0.722462675,-4.4632489
2026-05-10 11:31:51.940,595,2.4150798,0.47155192,0.33941004,0.59391373,0.7556403,-4.577519
2026-05-10 11:31:51.950,596,2.341950675,0.41196001,0.31924119,0.7365125575,0.579252975,-4.608787400000001
2026-05-10 11:31:51.960,597,2.17195595,0.33681841999999995,0.303005485,0.8706356799999999,0.41996986999999997,-4.71015285
2026-05-10 11:31:51.970,598,1.696272725,0.1895232475,0.2996211375,0.95722586,0.31948254,-4.8010955
2026-05-10 11:31:51.980,599,1.1746010666666666,-0.058885543333333325,0.2699141333333333,1.5322028333333335,0.5520694666666667,-4.5867325333333335
2026-05-10 11:31:51.990,600,0.96877605,-0.16775368,0.25403923,1.67316,0.6273586,-4.4967318
2026-05-10 11:31:52.000,601,0.855354775,-0.23254405499999997,0.24827669000000002,1.9249892000000002,0.6385832650000001,-4.3566909
2026-05-10 11:31:52.010,602,0.61393825,-0.37986973,0.11643972100000001,2.880878725,-0.15218179249999997,-3.92194575
2026-05-10 11:31:52.020,603,0.4688687999999999,-0.47252756,-0.023416000000000003,3.1155655,-0.4195117,-3.823711
2026-05-10 11:31:52.030,604,0.94871385,-0.1667018,0.20717672,3.1155655,-0.4195117,-3.823711
2026-05-10 11:31:52.040,605,1.1086622,-0.06475988,0.28404096,3.1155655,-0.4195117,-3.823711
2026-05-10 11:31:52.050,606,0.67006955,-0.35119427000000003,0.10005156750000001,3.11018215,-0.240604555,-3.8970148
2026-05-10 11:31:52.060,607,0.48236551999999994,-0.4814711666666667,-0.007297173333333333,3.0066786333333333,-0.5904521666666667,-3.7242418333333336
2026-05-10 11:31:52.070,608,0.46161228,-0.49887055,-0.030306645,2.9683468,-0.6284276,-3.6997054
2026-05-10 11:31:52.080,609,0.46161228,-0.49887055,-0.030306645,2.782567525,-0.635185325,-3.641635
2026-05-10 11:31:52.090,610,0.41412477,-0.6125814625,-0.04867661875,2.457396275,-0.5777258025,-3.59799625
2026-05-10 11:31:52.100,611,0.3126402,-0.7022361,-0.14098383,1.9547688,-0.45142942999999996,-3.5407276
2026-05-10 11:31:52.110,612,0.28410194,-0.69632112,-0.148636715,1.780901325,-0.46047785750000003,-3.50293045
2026-05-10 11:31:52.120,613,0.25556368,-0.69040614,-0.1562896,1.7229455,-0.463494,-3.4903314
2026-05-10 11:31:52.130,614,-0.20531686,-0.3607527575,-0.23196476500000002,1.48829685,0.263282925,-2.41284145
2026-05-10 11:31:52.140,615,-0.6661974,-0.031099375,-0.30763993,1.2536482,0.99005985,-1.3353515
2026-05-10 11:31:52.150,616,-0.62753665,-0.05408852,-0.6221095,1.62398525,0.614988585,-1.1834751
2026-05-10 11:31:52.160,617,-0.62753665,-0.05408852,-0.6221095,1.9943223,0.23991732,-1.0315987
2026-05-10 11:31:52.170,618,-0.62753665,-0.05408852,-0.6221095,1.9943223,0.23991732,-1.0315987
2026-05-10 11:31:52.180,619,-0.7907015875,-0.01501612,-0.8697001375000001,2.104698,-1.1530463875,-0.46819002
2026-05-10 11:31:52.190,620,-0.744753825,-0.0443928325,-0.89733896,1.81327705,-1.38070825,-0.10804678499999999
2026-05-10 11:31:52.200,621,-0.6555871,-0.085004956,-0.87883174,0.17195858666666666,-0.5812891733333333,0.9527461666666666
2026-05-10 11:31:52.210,622,-0.6370341749999999,-0.076711791,-0.7813565474999999,-1.06072928,0.5512295349999999,1.764102425
2026-05-10 11:31:52.220,623,-0.22156780674999998,-0.138742852,-0.3818820375,-2.9756775,2.1626156749999996,3.50537375
2026-05-10 11:31:52.230,624,0.18801401574999999,-0.2705798125,-0.041481076500000005,-3.0368020000000002,1.622305375,3.8238637
2026-05-10 11:31:52.240,625,0.28477272,-0.3078838066666667,0.22058197999999998,-2.4349597666666667,0.7138978333333333,4.0672426
2026-05-10 11:31:52.250,626,0.88258195,-0.336467805,0.0483564825,-0.7509061,-1.2180653,4.953659
2026-05-10 11:31:52.260,627,1.0042049,-0.3413004,-0.05110054,-0.11919507000000001,-1.39720155,5.56612775
2026-05-10 11:31:52.270,628,1.0042049,-0.3413004,-0.05110054,0.51251596,-1.5763378,6.1785965
2026-05-10 11:31:52.280,629,1.0042049,-0.3413004,-0.05110054,0.17358754693333334,-1.0879510000000001,6.2158595000000005
2026-05-10 11:31:52.290,630,1.04280475,-0.23400755,-0.213274635,-1.3369931548,-0.18062520999999998,5.4725892
2026-05-10 11:31:52.300,631,1.0814046,-0.1267147,-0.37544873,-2.9136746,0.4897612,4.6379943
2026-05-10 11:31:52.310,632,0.953836175,-0.17851651000000002,-0.2683693125,-3.09513975,0.37174967325,4.728516975
2026-05-10 11:31:52.320,633,0.55533729,-0.3480894266666666,0.14139037000000002,-3.6395351999999996,0.017715093,5.000085
2026-05-10 11:31:52.330,634,0.656715155,-0.35236813,0.404688265,-3.29890145,-0.30543261850000003,5.626909
2026-05-10 11:31:52.340,635,0.78968024,-0.32831186,0.4909433,-2.6140451,-0.77198094,6.487389
2026-05-10 11:31:52.350,636,0.78968024,-0.32831186,0.4909433,-2.6140451,-0.77198094,6.487389
2026-05-10 11:31:52.360,637,0.9570883600000001,0.09555432666666668,0.23942454666666668,-2.3250549333333335,-0.7857254133333332,5.4811412
2026-05-10 11:31:52.370,638,1.2919046,0.9432867,-0.26361296,-2.0760255499999998,-0.50965251,3.442721975
2026-05-10 11:31:52.380,639,1.2855018,0.95014685,-0.2411116425,-3.3390658749999997,0.636139805,3.4237086999999997
2026-05-10 11:31:52.390,640,1.2662934,0.9707273,-0.17360769,-4.4897833,1.524872375,3.6800048750000003
2026-05-10 11:31:52.400,641,1.4047770999999998,1.0083108333333335,-0.06242234,-5.580304966666667,2.0828977,3.8894808666666667
2026-05-10 11:31:52.410,642,2.1466954,1.185861925,0.7134257725,-5.70540515,1.9596556,3.61113
2026-05-10 11:31:52.420,643,2.6045423,1.4396572,1.7809577,-3.9423716,1.1710287,2.4168882
2026-05-10 11:31:52.430,644,2.657431433333333,1.4852289333333335,1.9682449,-0.7496843733333334,0.10231994666666662,1.6050484
2026-05-10 11:31:52.440,645,3.149269,1.615643,1.8858417,2.8058567,-1.0206031,0.7849618
2026-05-10 11:31:52.450,646,3.149269,1.615643,1.8858417,2.8058567,-1.0206031,0.7849618
2026-05-10 11:31:52.460,647,3.33170365,1.5689483,1.4796290250000002,4.370664425,-1.2840387249999998,-0.30268373000000004
2026-05-10 11:31:52.470,648,3.3925152,1.5533834,1.3442248,4.892267,-1.3718506,-0.66523224
2026-05-10 11:31:52.480,649,3.3925152,1.5533834000000002,1.3442248,4.892267,-1.3718506,-0.66523224
2026-05-10 11:31:52.490,650,3.5839286,1.3913007,0.49161404,4.892267,-1.3718506,-0.66523224
2026-05-10 11:31:52.500,651,3.5123695,1.32495535,0.20485951,4.32179525,-0.6694319384999999,-1.17675552
2026-05-10 11:31:52.510,652,3.4408104,1.25861,-0.08189502,3.43115375,0.3689626115,-1.8595502
2026-05-10 11:31:52.520,653,3.343427,1.1598238,-0.13610551,3.110984,0.7049385,-2.0308216
2026-05-10 11:31:52.530,654,3.1751244499999998,0.94953712,-0.11616532,2.7019715,1.0732902,-2.3038783
2026-05-10 11:31:52.540,655,3.0890218249999997,0.853586395,-0.10483843749999999,2.3345742,1.1632402,-2.7146852
2026-05-10 11:31:52.550,656,2.9990165,0.7760209,-0.09079798,2.321746,0.8434522,-2.9608638
2026-05-10 11:31:52.560,657,2.8735416666666667,0.7716913666666666,-0.13041411,2.317622666666667,0.43702318333333334,-3.0975448666666665
2026-05-10 11:31:52.570,658,2.622592,0.7630323,-0.20964637,2.056706925,-0.4925483125,-3.41740925
2026-05-10 11:31:52.580,659,2.5629391249999998,0.7794052075,-0.2719061025,1.9724839,-0.5314528,-3.43291
2026-05-10 11:31:52.590,660,2.373492175,0.80402554,-0.38458036,1.195959625,-0.3451388875,-3.604983125
2026-05-10 11:31:52.600,661,2.233911,0.7563246,-0.27263784,-0.2499966,0.09132435,-4.0071235
2026-05-10 11:31:52.610,662,1.98011545,0.63101243,-0.057259446000000006,-0.70142605,0.35078937,-4.5073456499999995
2026-05-10 11:31:52.620,663,1.5994226249999999,0.38444316999999995,0.1900873195,-0.6380869375,0.45715627,-4.90295725
2026-05-10 11:31:52.630,664,1.5111248,0.32190904,0.24629487,-0.59681535,0.47647488,-4.989242
2026-05-10 11:31:52.640,665,1.4027445333333333,0.19173883333333333,0.29580993000000005,-0.59681535,0.47647488,-4.989242
2026-05-10 11:31:52.650,666,1.24030105,0.041176182,0.3188295675,-0.209679498,0.4756731225,-5.1916290499999995
2026-05-10 11:31:52.660,667,1.158146825,-0.023309290499999996,0.30884424,0.1219821515,0.4114941025,-5.34258935
2026-05-10 11:31:52.670,668,1.0130163749999999,-0.15339310499999997,0.266539955,0.666950335,0.19509509,-5.398368925
2026-05-10 11:31:52.680,669,1.0753676666666667,-0.29274064666666666,0.10350197566666665,0.7950920333333333,0.13271047466666666,-5.402237799999999
2026-05-10 11:31:52.690,670,1.144518,-0.35843554,0.030245667,1.08317855,-0.0875064435,-5.3870679500000005
2026-05-10 11:31:52.700,671,1.144518,-0.35843554,0.030245667,1.0897835,-0.114689946,-5.4017286
2026-05-10 11:31:52.710,672,1.144518,-0.35843554,0.030245667,0.98761636,-0.15882497,-5.558263
2026-05-10 11:31:52.720,673,1.1596611666666667,-0.45878693333333337,-0.018639299333333335,0.98761636,-0.15882497,-5.558263
2026-05-10 11:31:52.730,674,1.1653119,-0.5204572,-0.042136606,0.847537315,-0.17967074,-5.66077375
2026-05-10 11:31:52.740,675,1.1653119,-0.5204572,-0.042136606,0.8008443,-0.18661933,-5.694944
2026-05-10 11:31:52.750,676,1.30123445,-0.5164630649999999,-0.062534138,0.607505465,-0.229914405,-5.868964249999999
2026-05-10 11:31:52.760,677,1.440145,-0.590796665,-0.09091994,0.23999368,-0.34399349,-6.36452875
2026-05-10 11:31:52.770,678,1.2625939333333334,-0.7522593333333334,-0.07646787666666667,-0.17648914333333332,-0.5187264333333333,-6.984582333333333
2026-05-10 11:31:52.780,679,1.053796175,-0.826389675,-0.0291785325,-0.573297,-0.59681535,-7.10421
2026-05-10 11:31:52.790,680,0.30349332,-1.0120102,0.29824913,-0.6162866499999999,-0.5519931124999999,-6.97268315
2026-05-10 11:31:52.800,681,0.30349332,-1.0120102,0.29824913,-0.7452556,-0.4175264,-6.5781026
2026-05-10 11:31:52.810,682,0.2253942505,-1.009525325,0.3644115225,-0.5700899925,-0.2935207525,-6.0686027
2026-05-10 11:31:52.820,683,-0.008902958,-1.0020707,0.5628987,-0.1553125,-0.09040806,-5.1595206
2026-05-10 11:31:52.830,684,-0.0356118335,-0.9829689675,0.5543158825,0.022792900000000005,-0.09865473999999999,-4.976757399999999
2026-05-10 11:31:52.840,685,-0.13923576666666668,-0.8897267133333333,0.47760916666666664,0.8056803333333334,-0.16447546666666665,-4.2075382
2026-05-10 11:31:52.850,686,-0.193852775,-0.772667,0.29352321000000003,1.7046194,-0.248087645,-3.36411135
2026-05-10 11:31:52.860,687,-0.17964463,-0.6377811,0.020793896,2.106416,-0.24953845,-2.9625437
2026-05-10 11:31:52.870,688,-0.185651075,-0.55448358,-0.3378703125,2.2486331749999997,0.107664998,-2.50076785
2026-05-10 11:31:52.880,689,-0.5173472666666666,-0.5177131666666667,-0.7169117500000001,2.0659463,0.30833423,-2.2401955
2026-05-10 11:31:52.890,690,-0.6891866,-0.5149081,-0.83260953,1.4398094,0.2648101,-1.7421877
2026-05-10 11:31:52.900,691,-0.80146445,-0.5280796,-0.8439059325,1.31946895,0.24503333,-1.63834055
2026-05-10 11:31:52.910,692,-0.8388904,-0.5324701,-0.8476714,1.1991285,0.22525656,-1.5344934
2026-05-10 11:31:52.920,693,-0.8388904,-0.5324701,-0.8476714,1.1991285,0.22525655999999997,-1.5344934
2026-05-10 11:31:52.930,694,-1.0001804,-0.5349702,-0.75528795,0.62930574,0.14794392750000002,-0.916679625
2026-05-10 11:31:52.940,695,-0.9699956,-0.536159325,-0.6617154675,0.008093964,0.12660182,-0.13103059
2026-05-10 11:31:52.950,696,-0.879532995,-0.6511203,-0.38804094,-0.588950449,0.635719815,1.0984120025
2026-05-10 11:31:52.960,697,-0.85163504,-0.83962214,-0.11092111,-0.9236283,0.71975195,3.6603045
2026-05-10 11:31:52.970,698,-0.4556973,-0.91072387,0.024818521,-0.7015787649999999,0.36621370200000003,4.54789175
2026-05-10 11:31:52.980,699,-0.29419398500000005,-0.903010035,0.029849302,-0.154358015,-0.4358523365,6.0715042
2026-05-10 11:31:52.990,700,-0.13269067,-0.8952962,0.034880083,0.4259257974999999,-1.0966558,6.792286875
2026-05-10 11:31:53.000,701,0.28365475333333334,-0.7783788,-0.04185203466666667,0.7780895999999999,-1.4387403666666667,7.052184533333334
2026-05-10 11:31:53.010,702,1.411759175,-0.1552986995,-0.67470399,-0.40935606999999996,-0.41714459000000004,7.0932146
2026-05-10 11:31:53.020,703,1.25156695,-0.064759877,-0.159978825,-3.422792575,0.9668088,6.97329395
2026-05-10 11:31:53.030,704,1.5959061666666667,0.07091876666666666,0.49702090000000004,-3.6063957,0.42979461,6.885978466666667
2026-05-10 11:31:53.040,705,1.8047395,0.1606801,0.5542397,-2.9442177,-0.15989397,6.605286
2026-05-10 11:31:53.050,706,1.8047395,0.1606801,0.5542397,-2.9442177,-0.15989397,6.605286
2026-05-10 11:31:53.060,707,1.873524025,0.4088348275,0.51207257,-2.0818669499999998,-0.6824128425,5.9589525000000005
2026-05-10 11:31:53.070,708,1.5238694,1.0249379,0.07927292,-1.2356277,-1.2573134,5.2914677
2026-05-10 11:31:53.080,709,1.568811,1.208729,0.017135147,-0.63178736,-1.9204077,4.7951393
2026-05-10 11:31:53.090,710,1.568811,1.208729,0.017135147,-0.67909124,-1.9055178,4.682663825
2026-05-10 11:31:53.100,711,1.8678528,1.5246621,-0.03872177,-1.0795516,-1.3654366,4.321566
2026-05-10 11:31:53.110,712,1.8678528000000003,1.5246620999999998,-0.03872177,-1.5599970999999997,-0.6365216,3.8241692
2026-05-10 11:31:53.120,713,1.348721975,1.5477428,0.2591614625,-2.425936675,0.5738315025,2.5616252250000002
2026-05-10 11:31:53.130,714,1.1853131,1.5688721,0.33160472,-2.571398975,0.68710887,2.18422505
2026-05-10 11:31:53.140,715,1.2285168,1.6152162,0.31995769,-2.5810583,0.67256266,2.1270328
2026-05-10 11:31:53.150,716,1.4909203666666666,1.7212793000000002,0.34140202000000003,-2.7371343666666665,0.20138191733333333,1.9647462666666666
2026-05-10 11:31:53.160,717,1.6005203,1.7511388,0.3579477,-2.8151724,-0.034208454,1.883603
2026-05-10 11:31:53.170,718,1.8956136000000001,1.9076419000000002,0.7805333375000001,-2.818074025,0.009201155499999999,1.532928175
2026-05-10 11:31:53.180,719,2.144657533333333,2.0420500666666666,1.6588568333333333,-1.9606738333333336,0.44944409,0.25208371599999996
2026-05-10 11:31:53.190,720,2.1842127,2.0567663,1.9270025,-1.591304,0.59421915,0.003970624
2026-05-10 11:31:53.200,721,2.1842127,2.0567663,1.9270025,-1.32069065,0.680732925,-0.091629788
2026-05-10 11:31:53.210,722,2.407442175,2.069846375,1.89197,0.6203337249999998,1.078444425,-0.565890275
2026-05-10 11:31:53.220,723,2.481852,2.0742064,1.8802925000000001,1.593238333333333,1.1781045333333333,-0.8054258000000001
2026-05-10 11:31:53.230,724,2.660033175,2.08115785,1.7778475249999999,1.8012888,1.1760683,-0.86208355
2026-05-10 11:31:53.240,725,2.7952239750000003,2.0638855,1.62247265,1.8012888,1.1760683,-0.86208355
2026-05-10 11:31:53.250,726,3.0226152,2.005117,1.258793,3.0401237,1.1016954,-1.4711162
2026-05-10 11:31:53.260,727,3.015755125,1.913861625,0.38461086,3.25743895,1.155375275,-2.28035995
2026-05-10 11:31:53.270,728,3.0694169000000002,1.8377293,-0.18647429,2.7908907,1.2724323,-2.661998
2026-05-10 11:31:53.280,729,3.130197975,1.77359435,-0.1729979025,1.431791775,1.38822945,-2.876984375
2026-05-10 11:31:53.290,730,3.02383495,1.52030215,0.0419079325,0.5066363435,1.2673927,-3.3699145
2026-05-10 11:31:53.300,731,2.8149610000000003,1.2667609,0.19804001999999998,0.034513887,1.1079569,-3.7911825
2026-05-10 11:31:53.310,732,1.6414677,0.480912225,0.616773785,0.095524058,1.1115457,-4.0404155500000005
2026-05-10 11:31:53.320,733,1.3017223,0.25251475,0.71315134,0.9728792500000001,1.1403327,-3.8154643999999998
2026-05-10 11:31:53.330,734,1.1335417,0.11323831,0.6945527,1.21608,1.1160508,-3.7398697999999997
2026-05-10 11:31:53.340,735,0.960315215,-0.04509409475,0.614700495,1.980463275,0.9559277500000001,-3.5833738000000004
2026-05-10 11:31:53.350,736,0.82228887,-0.1794007125,0.5128805675,2.4879014,0.8361218,-3.4912477
2026-05-10 11:31:53.360,737,0.7653495,-0.22696446,0.45850238,2.4879014,0.8361218,-3.4912477
2026-05-10 11:31:53.370,738,0.7653495,-0.22696446,0.45850237999999993,2.937193,0.6673702599999999,-3.4620788
2026-05-10 11:31:53.380,739,0.7653495,-0.22696446,0.45850238,3.0631839000000003,0.6105598,-3.4616969749999997
2026-05-10 11:31:53.390,740,0.48263486499999997,-0.395998735,0.1810776325,3.5851299,0.341168245,-3.439820375
2026-05-10 11:31:53.400,741,0.44600161999999993,-0.40923121999999995,0.15537491,3.6331210000000005,0.30818152,-3.43291
2026-05-10 11:31:53.410,742,0.39511451,-0.42947628000000004,0.119580145,3.633121,0.30818152,-3.43291
2026-05-10 11:31:53.420,743,0.3442274,-0.44972134,0.08378538,3.6997817,0.20147099575,-3.373388775
2026-05-10 11:31:53.430,744,0.3442274,-0.44972134,0.08378538,3.8033997999999998,-0.010079277,-3.2520937999999995
2026-05-10 11:31:53.440,745,0.22812307,-0.51021266,0.061223082,3.8033998,-0.010079277,-3.2520938
2026-05-10 11:31:53.450,746,0.1612899,-0.5431415,0.07402871,3.8033998,-0.010079277,-3.2520938
2026-05-10 11:31:53.460,747,0.43195610000000007,-0.2198705866666667,0.4987283066666667,1.447623366666667,-0.24022276133333334,-1.7012342
2026-05-10 11:31:53.470,748,0.7026223,0.10340032666666665,0.9234279033333334,-0.9081530666666664,-0.4703662456666667,-0.15037460000000014
2026-05-10 11:31:53.480,749,0.9732885,0.42667124,1.3481275,-3.2639294999999997,-0.70050973,1.400485
2026-05-10 11:31:53.490,750,0.3949011,0.42545164,0.97780097,-0.95829487,-1.7744108,1.3238977
2026-05-10 11:31:53.500,751,0.2145247,0.4288055,0.693699,-0.4717407,-1.8435913,1.8241963
2026-05-10 11:31:53.510,752,0.2145247,0.4288055,0.693699,-0.58879773,-1.583820925,2.427807625
2026-05-10 11:31:53.520,753,0.2145247,0.4288055,0.693699,-0.62781674,-1.4972307999999999,2.6290114
2026-05-10 11:31:53.530,754,0.24989263,0.4806378,0.47514966,-0.62781674,-1.4972308,2.6290114
2026-05-10 11:31:53.540,755,0.28526056,0.5324701,0.25660032,-0.62781674,-1.4972308,2.6290114
2026-05-10 11:31:53.550,756,1.5694208333333333,1.0171528533333334,0.35176850333333337,-2.2893192333333334,-0.6478225666666667,2.187813866666667
2026-05-10 11:31:53.560,757,1.7539742999999999,1.1441521,0.67232582,-2.4684682249999996,-0.4201989265,1.4033482925
2026-05-10 11:31:53.570,758,1.4968556,1.1732391,1.1803738,-2.4371996,0.074830994,0.35842517
2026-05-10 11:31:53.580,759,1.4968556,1.1732391,1.1803738,-2.4371996,0.074830994,0.35842517
2026-05-10 11:31:53.590,760,1.4097164,1.175597,1.2332630333333332,-2.3106487333333336,0.351145698,0.2827797033333333
2026-05-10 11:31:53.600,761,1.0955517,1.2022653,1.4860623,-1.6978999,1.0193814,0.68737614
2026-05-10 11:31:53.610,762,1.599818925,1.26171995,2.131481075,-0.6375906075,0.730823915,0.82680611
2026-05-10 11:31:53.620,763,3.4547749,1.1717148,2.614177,4.01865335,-0.187382913,0.22579105
2026-05-10 11:31:53.630,764,3.7984939,0.9166592000000001,1.726482866666667,6.6139908,-0.3163772933333333,-0.72474071
2026-05-10 11:31:53.640,765,3.9976417,0.68278372,0.459935365,7.789218999999999,-0.41248675,-2.1572706
2026-05-10 11:31:53.650,766,3.8910503500000004,0.49984622,-0.5813753850000001,6.6855382,-0.370947915,-3.1791717999999998
2026-05-10 11:31:53.660,767,3.42907195,0.308691785,-0.6899030625,3.660113775,0.0038179099999999973,-4.10917615
2026-05-10 11:31:53.670,768,3.3197057,0.27050358,-0.65320885,1.5609133999999998,0.3572034499999999,-4.5150576
2026-05-10 11:31:53.680,769,2.4964566,0.059622378999999996,-0.21531743,0.2669863,0.792674,-4.442097575
2026-05-10 11:31:53.690,770,2.1502169749999998,-0.015153323,0.0704766725,-0.45948521,1.1160508,-4.208403475
2026-05-10 11:31:53.700,771,1.8559618999999998,-0.07250423,0.42185387,-0.4538729000000001,1.1728612,-4.114483
2026-05-10 11:31:53.710,772,1.622106875,-0.1153268465,0.5891654775,0.22376756324999997,1.065921675,-4.04728775
2026-05-10 11:31:53.720,773,1.4640489,-0.14665489,0.6835155,1.17381569,0.8747208625,-4.0114374999999995
2026-05-10 11:31:53.730,774,1.4326445,-0.21586626,0.48374772,2.1646519333333334,0.6141741000000001,-4.111683066666667
2026-05-10 11:31:53.740,775,1.35980495,-0.28410196,0.311725495,2.5822802,0.5083926,-4.2545238
2026-05-10 11:31:53.750,776,1.22203785,-0.38293392,0.12308645200000001,2.95170095,0.37858374,-4.48840885
2026-05-10 11:31:53.760,777,1.174184425,-0.4154967925,0.086910562,2.9451342,0.36850446,-4.525137
2026-05-10 11:31:53.770,778,1.1025643,-0.46612477,0.04927117,2.9451342,0.36850446,-4.525137
2026-05-10 11:31:53.780,779,1.0644828125,-0.4984437275,0.065827015,2.8961122,0.37430768,-4.5237625
2026-05-10 11:31:53.790,780,0.95023835,-0.5954006,0.11549455,2.8470902,0.3801109,-4.522388
2026-05-10 11:31:53.800,781,0.9332861500000001,-0.6119056266666667,0.13874793,2.7235935333333336,0.3760384666666667,-4.43422
2026-05-10 11:31:53.810,782,0.8804934125,-0.6707403599999999,0.18805975,2.6994134,0.361021355,-4.3598216999999995
2026-05-10 11:31:53.820,783,0.7027239,-0.80425423,0.22446433,2.8128053,0.31726813,-4.2847614499999995
2026-05-10 11:31:53.830,784,0.6767061333333334,-0.8178322699999999,0.22692381666666664,2.888629,0.2864958,-4.2400155
2026-05-10 11:31:53.840,785,0.6246706,-0.84498835,0.23184279,2.969835925,0.21525363749999998,-4.188703125
2026-05-10 11:31:53.850,786,0.46953958,-0.91237026,0.21153674,2.9969049,0.19150625,-4.171599
2026-05-10 11:31:53.860,787,0.41290518,-0.920023155,0.174049795,3.1651983,-0.0517708275,-3.92702345
2026-05-10 11:31:53.870,788,0.26034038666666665,-0.9153176266666666,0.010447763333333332,3.1021773666666665,-0.3062980166666667,-3.6315937999999996
2026-05-10 11:31:53.880,789,0.3561793,-0.8230968000000001,-0.1674488,2.6378689,-0.731892925,-3.2419382499999996
2026-05-10 11:31:53.890,790,0.41883541,-0.77842955,-0.26468008499999995,2.3603833,-0.79351395,-3.2139149
2026-05-10 11:31:53.900,791,0.42032942,-0.7706547,-0.2862972,2.3603833,-0.79351395,-3.2139149000000002
2026-05-10 11:31:53.910,792,0.37912274,-0.7613249,-0.2960538625,1.3815863,-0.6389650600000001,-3.2980232000000003
2026-05-10 11:31:53.920,793,-0.22048542599999998,-0.6771889125,-0.3000479925,0.2272800475,-0.10632873,-3.1327842
2026-05-10 11:31:53.930,794,-0.27989438,-0.6677219,-0.30050534,0.14263703,-0.06658431,-3.0885346
2026-05-10 11:31:53.940,795,-0.5082003933333333,-0.6406877933333334,-0.33054774666666664,-0.09875654333333334,-0.012624547666666666,-2.7675249333333336
2026-05-10 11:31:53.950,796,-0.7687338699999999,-0.60576707,-0.35462434499999995,-0.3182989725,-0.006490442875,-2.355152775
2026-05-10 11:31:53.960,797,-0.91511434,-0.5843634,-0.36367974,-0.45631635,-0.07315111,-1.7379116
2026-05-10 11:31:53.970,798,-0.9442420933333334,-0.5710699166666666,-0.36067144333333334,-0.5016221833333333,-0.2639446833333334,-1.0403035333333335
2026-05-10 11:31:53.980,799,-0.7027696775000001,-0.42927808,-0.441382465,-0.68432179,-0.771446475,0.869184885
2026-05-10 11:31:53.990,800,-0.6354029,-0.41368267,-0.45752668,-0.71959925,-0.79611015,1.01312
2026-05-10 11:31:54.000,801,-0.4688891533333333,-0.3816889233333333,-0.4450869333333333,-0.8317948566666667,-0.8380562033333333,1.4216870666666666
2026-05-10 11:31:54.010,802,-0.18757191,-0.320140625,-0.427494455,-1.0800097,-0.60903263,2.4811819
2026-05-10 11:31:54.020,803,-0.1348859,-0.3029445,-0.43429363,-1.0800097,-0.60903263,2.4811819
2026-05-10 11:31:54.030,804,-0.1348859,-0.3029445,-0.43429363,-1.0800097,-0.60903263,2.4811819
2026-05-10 11:31:54.040,805,-0.020641437,-0.3294094625,-0.39630361,-1.1911872,-0.52935291,2.9600239
2026-05-10 11:31:54.050,806,0.24603061999999998,-0.42575655,-0.23787972333333332,-1.2658654,-0.52396965,4.0969205
2026-05-10 11:31:54.060,807,0.43423265,-0.50002919,-0.015092344,-0.70211325,-1.0811551000000001,5.1414238
2026-05-10 11:31:54.070,808,0.83050578,-0.377095185,-0.16266193,-0.29241355,-1.44248195,5.77595975
2026-05-10 11:31:54.080,809,0.87968546,-0.3583136,-0.23470882,-0.1704314,-1.5473217000000001,5.903096000000001
2026-05-10 11:31:54.090,810,0.87968546,-0.3583136,-0.23470882,-0.1704314,-1.5473217,5.903096
2026-05-10 11:31:54.100,811,0.87968546,-0.3583136,-0.23470882,-0.73548175,-1.126740975,6.2033363999999995
2026-05-10 11:31:54.110,812,1.562728315,-0.2006671975,-0.7051478725,-3.4585662999999998,0.34185542499999994,6.2680884
2026-05-10 11:31:54.120,813,2.0481479,-0.13964228666666667,-0.68743852,-5.6166005,1.3898711,6.0325999999999995
2026-05-10 11:31:54.130,814,2.0002997,-0.1574482,-0.38160762,-6.414849,1.513266,5.3832498
2026-05-10 11:31:54.140,815,1.3275165,-0.041603032500000005,0.75919067,-6.1353017,0.9950995149999999,5.039256399999999
2026-05-10 11:31:54.150,816,0.94194525,0.07537025,1.4575851,-5.8557543999999995,0.4769330299999999,4.695263
2026-05-10 11:31:54.160,817,1.7491874,0.60198635,0.63650054,-1.7296649,-1.5848899,5.6494346
2026-05-10 11:31:54.170,818,1.7491874,0.60198635,0.63650054,-1.7296649,-1.5848899,5.6494346
2026-05-10 11:31:54.180,819,1.7491874,0.60198635,0.63650054,-1.5419256666666665,-1.6075428,5.6247964
2026-05-10 11:31:54.190,820,1.768426325,0.62482305,0.599272755,-1.1664472,-1.6528486,5.57552
2026-05-10 11:31:54.200,821,1.8261431,0.69333315,0.4875894,-1.3886112499999999,-1.461991425,5.25703
2026-05-10 11:31:54.210,822,1.9843841,1.0862219,-0.10714039000000002,-3.9828415000000006,-0.059406646,3.4306192
2026-05-10 11:31:54.220,823,1.9843841,1.0862219,-0.10714039,-3.9828415,-0.059406646,3.4306192
2026-05-10 11:31:54.230,824,1.9843841,1.0862219,-0.10714039,-3.9828415,-0.059406646,3.4306192
2026-05-10 11:31:54.240,825,1.84590035,1.02123335,0.13753853,-4.128991025,0.0573831505,3.2779029
2026-05-10 11:31:54.250,826,1.7997391,0.9995705,0.21909817,-4.5674396,0.40775254,2.819754
2026-05-10 11:31:54.260,827,1.65555395,0.9243832000000001,0.438867085,-4.5152106,0.54534996,2.2116377
2026-05-10 11:31:54.270,828,1.2719949000000002,0.8345151375000001,0.9961099,-4.249827775,0.37106247000000003,2.08690665
2026-05-10 11:31:54.280,829,1.0269297666666668,0.8144580666666666,1.2721474333333334,-1.7112372,-1.2123129333333333,1.3542882
2026-05-10 11:31:54.290,830,0.9070041,0.8003516,1.2339745,-1.248914,-1.4610369,1.2812898
2026-05-10 11:31:54.300,831,0.8677640625,0.84411935,1.0853377000000002,-0.8049677,-1.624939725,1.2951489
2026-05-10 11:31:54.310,832,0.9507261625,0.9849812250000001,0.6162249475,-0.6365979374999999,-1.4385876,1.395521625
2026-05-10 11:31:54.320,833,1.0577446000000001,1.0573990666666668,0.4640920933333333,-0.8205956333333333,-1.2190324666666668,1.4153747333333335
2026-05-10 11:31:54.330,834,1.339072025,1.12024825,0.6306770150000001,-1.299844875,-0.82386635,1.3364204499999999
2026-05-10 11:31:54.340,835,1.7330279,1.126834,1.2040946,-1.5928311,-0.473726,1.171945
2026-05-10 11:31:54.350,836,1.7330279,1.126834,1.2040946,-1.4801264333333333,-0.09529497999999999,0.8555168000000001
2026-05-10 11:31:54.360,837,1.8939214500000001,1.1473230499999998,1.254189,-0.07925974999999996,0.27198775,0.22479842000000003
2026-05-10 11:31:54.370,838,2.1280205,1.1944904749999998,1.2394168250000002,1.4383203500000001,0.3852650775,-0.3027219125
2026-05-10 11:31:54.380,839,2.347637,1.2745256,1.0448171,1.9575176,0.19089539999999997,-0.46777007
2026-05-10 11:31:54.390,840,2.4116194,1.2995575750000001,0.958348625,2.0365483,0.17226400749999998,-0.5325599675
2026-05-10 11:31:54.400,841,2.7150365,1.3525789499999998,0.61631645,2.197816825,0.40099485749999997,-0.9144652525
2026-05-10 11:31:54.410,842,2.8265064,1.3305044,0.5336897,2.101682,0.6394232,-1.0340421
2026-05-10 11:31:54.420,843,3.029567,1.1988504,0.53173834,2.0154990666666666,0.8059857666666667,-1.179988
2026-05-10 11:31:54.430,844,3.0178589749999998,1.17488565,0.54806548,1.8660405999999998,1.166943475,-1.652046825
2026-05-10 11:31:54.440,845,3.0041997,1.1337856,0.5392388,1.98168495,1.10532245,-1.9246837
2026-05-10 11:31:54.450,846,3.0041996999999996,1.1337856,0.5392388,2.0176878,1.0816896,-1.9955441
2026-05-10 11:31:54.460,847,2.92983545,1.0964359,0.418835405,2.3059399999999997,0.7767915249999999,-2.4210117
2026-05-10 11:31:54.470,848,2.773698425,1.06337,0.26413126,2.3659574,0.5389358875,-2.787492725
2026-05-10 11:31:54.480,849,2.35965,0.93834746,0.14031307,2.0186043,0.4981606,-3.1309898
2026-05-10 11:31:54.490,850,2.21333045,0.9091079550000001,0.114823775,1.8417587,0.59040123,-3.3067663
2026-05-10 11:31:54.500,851,1.8943788,0.8322436,0.043722063,1.2130257,1.1059716,-3.5897495999999998
2026-05-10 11:31:54.510,852,1.755254825,0.741476155,0.09477686825,1.14315795,1.1371257,-3.6662605
2026-05-10 11:31:54.520,853,1.5393581,0.55277616,0.21879324,1.1378893,1.2008084,-4.0613375
2026-05-10 11:31:54.530,854,1.5393581,0.55277616,0.21879324,1.1378893,1.2008084,-4.0613375
2026-05-10 11:31:54.540,855,1.4167087,0.3976045066666667,0.2574947,1.4291701666666665,1.1468486666666668,-4.3018147
2026-05-10 11:31:54.550,856,1.200390125,0.154505965,0.24693514500000002,1.7498998499999998,1.05694965,-4.50978895
2026-05-10 11:31:54.560,857,0.9057845375,-0.1497495925,0.1480574175,2.0715966999999997,1.017014275,-4.4573693
2026-05-10 11:31:54.570,858,0.6535137,-0.33550736,0.078480184,2.085952,1.1366675,-4.1775546
2026-05-10 11:31:54.580,859,0.5767714500000001,-0.4406049875,0.06329637099999999,1.935908275,0.925460825,-3.818365875
2026-05-10 11:31:54.590,860,0.5697283424999999,-0.562715775,0.06268658575000001,1.76948575,0.596509885,-3.532137425
2026-05-10 11:31:54.600,861,0.57411885,-0.5733261,0.060491335,1.6687821000000003,0.44750969,-3.4803538
2026-05-10 11:31:54.610,862,0.6881346375,-0.6423545500000001,0.06294574524999999,1.323745,0.125456455,-3.4473416
2026-05-10 11:31:54.620,863,0.7120994675,-0.6865186925,0.048447948,0.8767825324999999,0.2344195375,-3.617849375
2026-05-10 11:31:54.630,864,0.41624376,-0.784558,0.011586042,0.035430185,1.2454015,-3.8814378
2026-05-10 11:31:54.640,865,0.41624376,-0.784558,0.011586042,0.035430185,1.2454015,-3.8814378
2026-05-10 11:31:54.650,866,0.3623382,-0.7808992299999999,0.00384168765,0.035430185,1.2454015,-3.8814378
2026-05-10 11:31:54.660,867,0.043310457,-0.75880954,-0.087093491175,0.30298917125,1.168088875,-3.701385225
2026-05-10 11:31:54.670,868,-0.103466403,-0.7332592625000001,-0.1341084295,0.5866597,0.993648675,-3.47475425
2026-05-10 11:31:54.680,869,-0.2786748,-0.67503935,-0.19196242,0.7811439,0.84497935,-3.3081408
2026-05-10 11:31:54.690,870,0.4310617333333333,-0.5589756766666667,-0.24578669666666667,-0.05065093333333337,0.38397971999999997,-0.047698366666666825
2026-05-10 11:31:54.700,871,1.1407982666666667,-0.44291200333333336,-0.2996109733333333,-0.8824457666666667,-0.07701991000000008,3.2127440666666662
2026-05-10 11:31:54.710,872,1.8505348,-0.32684833,-0.35343525,-1.7142406,-0.53801954,6.4731865
2026-05-10 11:31:54.720,873,1.1395786,-0.22617173,0.2584297,-3.9535198,-0.1693624,5.559332
2026-05-10 11:31:54.730,874,1.2458044,-0.1428132,0.50448066,-3.452992075,-0.5926920250000001,5.7419042000000005
2026-05-10 11:31:54.740,875,1.2458044,-0.1428132,0.50448066,-3.2861495,-0.7338019,5.8027616
2026-05-10 11:31:54.750,876,1.2458044,-0.1428132,0.50448066,-3.2861495,-0.7338019,5.8027616
2026-05-10 11:31:54.760,877,1.4129483,-0.080492504,0.60314494,-2.8985555,-0.90247705,5.8308613000000005
2026-05-10 11:31:54.770,878,1.4651261,-0.058865225,0.6113568133333334,-2.5109615,-1.0711522,5.858961
2026-05-10 11:31:54.780,879,1.5694817,-0.015610667,0.62778056,-2.5109615,-1.0711522,5.858961
2026-05-10 11:31:54.790,880,1.7844943,0.20708527,0.6628436,-1.0665708,-1.2027937,5.388137
2026-05-10 11:31:54.800,881,1.7935192,0.261905535,0.6525685999999999,-1.0665708,-1.2027937,5.388137
2026-05-10 11:31:54.810,882,1.7483743,0.3847175666666667,0.5533249866666666,-0.6107125,-1.1716396,4.9791627
2026-05-10 11:31:54.820,883,1.6400347,0.5207011,0.37538776,0.10247265,-0.86193085,4.349666
2026-05-10 11:31:54.830,884,1.4760008,0.81480366,-0.08213894,-0.3943135,-0.3407101,4.104251
2026-05-10 11:31:54.840,885,1.6604830666666668,0.8813115933333333,-0.10425404666666667,-0.3943135,-0.34071010000000007,4.104251
2026-05-10 11:31:54.850,886,1.91672775,0.9615804649999999,0.012881853,-1.76253715,0.119271435,3.7871737000000003
2026-05-10 11:31:54.860,887,1.9713956,0.9772521,0.055613004,-1.8730656,0.14263703,3.7421606
2026-05-10 11:31:54.870,888,2.2560462666666665,1.0510979,0.6062955346666666,-1.9492201333333334,0.00397062333333333,3.1661146000000002
2026-05-10 11:31:54.880,889,2.4365447,1.0792093,1.0485368,-1.440573,-0.24831672,2.2058344
2026-05-10 11:31:54.890,890,2.3631257,1.07638905,1.0952163499999998,-0.28615218500000006,-0.2922608325,1.625397875
2026-05-10 11:31:54.900,891,2.3193833,1.1326474,0.9212936866666667,1.6412930999999997,-0.24480424,1.1150327333333332
2026-05-10 11:31:54.910,892,2.4997191,1.2024482,0.71412706,1.8646661,-0.2490803,1.1438452
2026-05-10 11:31:54.920,893,2.4997191,1.2024482,0.71412706,1.8566485,-0.249385735,1.09986285
2026-05-10 11:31:54.930,894,2.786931,1.3247876,0.55204441,1.8486309,-0.24969117,1.0558805
2026-05-10 11:31:54.940,895,3.465425666666667,1.4730534666666666,0.36851742666666665,1.0328204333333333,0.5836308366666667,-0.9769261666666668
2026-05-10 11:31:54.950,896,3.23113355,1.202539675,0.364685905,0.743957525,0.934852885,-2.2983804500000002
2026-05-10 11:31:54.960,897,2.749703175,0.805854955,0.30788382,1.0191522499999999,0.2969186825,-2.991597975
2026-05-10 11:31:54.970,898,2.5308795,0.6873572,0.20312162,1.055918675,-0.19898936250000002,-3.14641415
2026-05-10 11:31:54.980,899,2.5026256333333334,0.6803648933333334,0.18417741333333335,1.039998,-0.29779682,-3.1720705
2026-05-10 11:31:54.990,900,2.4884987,0.67686874,0.17470531,1.0144944,-0.307647015,-3.179439075
2026-05-10 11:31:55.000,901,2.4884987,0.67686874,0.17470531,0.9379836,-0.3371976,-3.2015448
2026-05-10 11:31:55.010,902,2.17392255,0.604608435,0.128345903,0.03344488750000002,0.2746221,-3.39244025
2026-05-10 11:31:55.020,903,2.0172112666666666,0.5719642666666667,0.17059938066666666,-0.57558775,0.77411896,-3.506214
2026-05-10 11:31:55.030,904,1.7684569250000002,0.4452394,0.47086587999999996,-0.57054815,1.473712375,-4.05351095
2026-05-10 11:31:55.040,905,1.3829313,0.3084631175,0.57279255,0.190589955,1.5745815,-4.3401594
2026-05-10 11:31:55.050,906,1.2960918666666668,0.18244966666666665,0.49935841,1.41858179,1.4496341,-4.5158212
2026-05-10 11:31:55.060,907,1.203088475,-0.052655507000000004,0.13169976249999998,2.344119075,1.0255663499999998,-4.7653215
2026-05-10 11:31:55.070,908,1.16118055,-0.1455267775,-0.0839225725,2.4795021250000002,0.8850291849999999,-4.81949775
2026-05-10 11:31:55.080,909,1.2715986,-0.22062262999999996,-0.2911755,1.9485074666666666,0.82909686,-4.7681087
2026-05-10 11:31:55.090,910,1.2715986,-0.22062263,-0.2911755,1.8590157,0.84574294,-4.7710104
2026-05-10 11:31:55.100,911,1.2715986,-0.22062262999999996,-0.2911755,1.8590156999999998,0.84574294,-4.7710104
2026-05-10 11:31:55.110,912,1.3493774250000001,-0.3442426475,-0.19370032999999998,1.14674675,1.21630905,-5.09553235
2026-05-10 11:31:55.120,913,1.08050505,-0.581466855,-0.0316024569,1.067372475,1.460693325,-5.2725305
2026-05-10 11:31:55.130,914,0.89352775,-0.7300426400000001,-0.022379354,1.219287,1.3954707666666666,-5.121239666666667
2026-05-10 11:31:55.140,915,0.9016227625,-0.7698315124999999,-0.0344989625,1.312902175,1.2516629,-4.9783225
2026-05-10 11:31:55.150,916,0.9043211,-0.78309447,-0.038538832,1.408540725,1.080811525,-4.9120818
2026-05-10 11:31:55.160,917,0.83100378,-0.8666155966666667,-0.17700220266666666,1.4260140000000001,1.0035497733333332,-4.890587133333334
2026-05-10 11:31:55.170,918,0.6596421125,-0.8954333050000001,-0.501843355,1.064890825,1.142585215,-4.774637374999999
2026-05-10 11:31:55.180,919,0.44709927,-0.9115776,-0.632232,0.47735300999999997,1.1178451575000001,-4.652387825
2026-05-10 11:31:55.190,920,0.17897385,-0.90730906,-0.5422877,0.327271055,0.8453993125,-4.5112779000000005
2026-05-10 11:31:55.200,921,-0.36321223666666674,-0.8787098200000001,-0.30093220000000004,0.3501785,0.43111816,-4.2992697
2026-05-10 11:31:55.210,922,-0.63570782,-0.86602617,-0.21580528000000002,0.790841435,-0.6105597965,-3.5154531
2026-05-10 11:31:55.220,923,-0.83004844,-0.85767204,-0.16446081,1.2338333,-1.4881059,-2.534823425
2026-05-10 11:31:55.230,924,-1.0954298,-0.78671259,-0.23487144000000001,1.2481504333333333,-1.597209,-1.677894056666667
2026-05-10 11:31:55.240,925,-1.3203513999999998,-0.666227905,-0.270320655,1.041601575,-1.3831516499999998,0.6330091149999999
2026-05-10 11:31:55.250,926,-1.13375515,-0.64421442,-0.25053291499999997,0.91629785,-1.1600331,1.5532776
2026-05-10 11:31:55.260,927,-0.9404207333333333,-0.6328417866666666,-0.25859232666666665,0.9030115333333333,-1.0603093466666667,1.8815667333333332
2026-05-10 11:31:55.270,928,-0.810901,-0.62991476,-0.27916262,0.89373402,-0.7840073599999999,3.1132366
2026-05-10 11:31:55.280,929,-0.6963516249999999,-0.6487268500000001,-0.31916496,0.777249665,-0.8097782250000001,3.8822779
2026-05-10 11:31:55.290,930,-0.484342285,-0.707876685,-0.4222807375,0.65500027,-0.86116725,4.459622
2026-05-10 11:31:55.300,931,-0.17446141,-0.7634592000000001,-0.5048465,0.38357247,-0.9305004833333334,4.8634038
2026-05-10 11:31:55.310,932,-0.062229246,-0.7594041,-0.50801745,0.1185078525,-0.987425475,5.2177055249999995
2026-05-10 11:31:55.320,933,0.050002918,-0.755349,-0.5111884,-0.394122625,-1.073901025,5.7974165
2026-05-10 11:31:55.330,934,0.185010806,-0.7451044666666666,-0.5100094666666667,-0.7678576,-1.1330023,6.164852
2026-05-10 11:31:55.340,935,0.48667476249999997,-0.70101655,-0.49812359,-1.219287,-1.1271227000000001,6.498079
2026-05-10 11:31:55.350,936,0.81455976,-0.63942754,-0.48545516,-2.0114264,-1.1110111,6.999294
2026-05-10 11:31:55.360,937,0.81455976,-0.63942754,-0.48545516,-2.0114264,-1.1110111,6.999294
2026-05-10 11:31:55.370,938,1.4305712999999998,-0.46606377000000004,-0.40758476,-2.489581266666667,-1.0626509466666667,7.0410873333333335
2026-05-10 11:31:55.380,939,1.4305713,-0.46606377,-0.40758476,-3.445891,-0.96593064,7.124674
2026-05-10 11:31:55.390,940,1.48702275,-0.45520947749999996,-0.399169635,-3.640986,-0.900491715,7.046330575
2026-05-10 11:31:55.400,941,1.7219500333333333,-0.43224066666666666,-0.31074983333333334,-4.499887833333333,-0.5770131466666667,6.676349966666667
2026-05-10 11:31:55.410,942,1.7547365,-0.4370377,-0.27916262,-5.9592957,0.22739458,5.9168406
2026-05-10 11:31:55.420,943,1.658907675,-0.42500956,-0.03164818750000001,-6.2329254,0.37869828250000004,5.734726425
2026-05-10 11:31:55.430,944,1.5541761,-0.40557244,0.15494807,-6.324135299999999,0.42913285,5.6740217
2026-05-10 11:31:55.440,945,1.20560395,-0.2597407725,0.6664717725,-6.2006259,0.2682080325,5.593425775
2026-05-10 11:31:55.450,946,1.0634158,-0.13323948,0.8820636,-5.8300977,-0.21456642,5.351638
2026-05-10 11:31:55.460,947,1.143954,-0.0580369225,0.8547144624999999,-5.458920774999999,-0.625602365,5.442045925
2026-05-10 11:31:55.470,948,1.3855686,0.16757075,0.77266705,-4.233296166666666,-2.014328133333333,5.711946133333332
2026-05-10 11:31:55.480,949,2.06390095,0.50646249,0.786234885,-4.0091085,-2.325564,5.709299
2026-05-10 11:31:55.490,950,2.3967252,0.6429034,0.84029293,-3.88876805,-2.4425447,5.5588735
2026-05-10 11:31:55.500,951,2.4591881333333334,0.7031508,0.9020444866666667,-3.5277467,-2.7934868,5.107597
2026-05-10 11:31:55.510,952,2.584114,0.8236456,1.0255476,-3.5277467,-2.7934868,5.107597
2026-05-10 11:31:55.520,953,2.584114,0.8236456,1.0255476,-2.908329425,-2.109355925,3.537635275
2026-05-10 11:31:55.530,954,2.18588975,1.0113547375,1.163680675,-2.57284985,-1.6683494,2.81524895
2026-05-10 11:31:55.540,955,1.6061505666666667,1.1343344999999998,1.0630498166666666,-2.209346733333333,-0.75085523,2.2387702
2026-05-10 11:31:55.550,956,1.17651675,1.3316325500000001,0.34346516250000003,-2.77592445,-0.185512145,2.416048325
2026-05-10 11:31:55.560,957,1.61930175,1.3984504750000002,0.5164020625000001,-2.9491048,-0.18280143,2.4613287
2026-05-10 11:31:55.570,958,1.7582123,1.4158143,0.5841804,-4.041179,-0.08811731,2.2947154
2026-05-10 11:31:55.580,959,2.1265874,1.4542922,1.2381821,-4.041179,-0.08811731,2.2947154
2026-05-10 11:31:55.590,960,2.0376189,1.559039125,2.069175675,-3.89583115,0.3352504825,1.27850277
2026-05-10 11:31:55.600,961,1.9588948,1.6332661,2.6002126,-2.7264442,0.6908886,0.28084528
2026-05-10 11:31:55.610,962,2.0817678666666666,1.6057848333333335,2.718939066666666,-1.5183055,0.5629123266666666,0.13255774666666664
2026-05-10 11:31:55.620,963,2.69072105,1.51822885,2.475738925,2.61717575,0.3062343775,-0.561499705
2026-05-10 11:31:55.630,964,2.9624289499999996,1.47557385,1.9859390000000001,3.633121,0.31887165,-0.8706357
2026-05-10 11:31:55.640,965,3.023652033333333,1.4269734333333333,1.6488359666666668,3.8233036666666664,0.3556253833333333,-1.0945177666666668
2026-05-10 11:31:55.650,966,3.0395067,1.3752631,1.2820259,3.9503129,0.55680364,-1.7397442
2026-05-10 11:31:55.660,967,2.8621182,1.1879352,0.79876614,3.0182088499999997,1.1707232349999999,-2.438192225
2026-05-10 11:31:55.670,968,2.8556950666666663,1.1335824666666667,0.7596581800000001,2.5160012,1.4014776,-2.6674957
2026-05-10 11:31:55.680,969,2.654667,0.97956938,0.7478485500000001,2.1953733499999997,1.343712675,-3.0356185
2026-05-10 11:31:55.690,970,2.2501312249999996,0.790625415,0.75371775,1.9317086,1.1844677,-3.396258
2026-05-10 11:31:55.700,971,1.7914662666666665,0.6372119866666667,0.6518672799999999,1.8327484333333333,1.1888964333333334,-3.3642893666666667
2026-05-10 11:31:55.710,972,1.6588010499999999,0.5675026325,0.6029467749999999,1.7022523999999999,1.303891875,-3.381520925
2026-05-10 11:31:55.720,973,1.5292965,0.48258913,0.5817413,1.6548339,1.4072808,-3.5022433
2026-05-10 11:31:55.730,974,1.5292965,0.48258913,0.5817413,1.73142115,1.41919265,-3.57493615
2026-05-10 11:31:55.740,975,1.1006943,0.21627277666666667,0.44592033999999997,2.1456133000000004,1.4353805333333334,-3.6080246666666667
2026-05-10 11:31:55.750,976,0.89720175,0.0727786325,0.347962375,2.3248005,1.4456125,-3.5289686
2026-05-10 11:31:55.760,977,0.9296274,0.04177073,0.25781992,2.3248005,1.4456125,-3.5289686
2026-05-10 11:31:55.770,978,0.91688278,-0.009675361333333335,0.21982989666666666,2.301536666666667,1.4669419333333333,-3.5482107999999997
2026-05-10 11:31:55.780,979,0.89139354,-0.112567544,0.14384985,2.1025982,1.6161968,-3.6830592
2026-05-10 11:31:55.790,980,0.89139354,-0.112567544,0.14384985,2.1025982,1.6161968,-3.6830592
2026-05-10 11:31:55.800,981,0.8294386,-0.16549747,0.15122834,2.0182224,1.6504815499999999,-3.66916205
2026-05-10 11:31:55.810,982,0.8955400566666666,-0.24775835999999998,0.14706142,1.6930639,1.7783814333333332,-3.472565233333333
2026-05-10 11:31:55.820,983,0.8805086875,-0.3625821325,0.10467073874999999,1.5760323,2.0193677,-3.513086
2026-05-10 11:31:55.830,984,0.8309834333333334,-0.43894839,0.03364017393333333,1.5016085666666665,2.076687366666667,-3.535993466666667
2026-05-10 11:31:55.840,985,0.77993881,-0.48711684,-0.007104073050000001,1.43476975,2.03349415,-3.5807775250000002
2026-05-10 11:31:55.850,986,0.6731948,-0.5599107275,0.06277805524999999,1.4175128,1.9188805,-3.6383133
2026-05-10 11:31:55.860,987,0.6531479,-0.57247245,0.0851879,1.521589,1.8365664000000002,-3.69191685
2026-05-10 11:31:55.870,988,0.6009090666666667,-0.5955022333333333,0.10486384333333332,1.6256652,1.7542523,-3.7455204
2026-05-10 11:31:55.880,989,0.4964314,-0.6415618,0.14421573,1.96801695,1.57545965,-3.790075275
2026-05-10 11:31:55.890,990,0.16696096,-0.6683164375,0.023065370249999995,2.8489610499999998,1.264682,-3.598301675
2026-05-10 11:31:55.900,991,0.05713748,-0.67723465,-0.017318083,3.1045700000000003,1.1809553,-3.5294265999999994
2026-05-10 11:31:55.910,992,0.05713748,-0.67723465,-0.017318083,3.31447855,1.057942275,-3.3399820499999997
2026-05-10 11:31:55.920,993,-0.13092227,-0.6947966,-0.15391143,3.5243871,0.93492925,-3.1505375
2026-05-10 11:31:55.930,994,-0.42822621,-0.64680602,-0.418378095,3.6587010500000003,0.27046059,-2.55463845
2026-05-10 11:31:55.940,995,-0.72553015,-0.59881544,-0.68284476,3.793015,-0.39400807,-1.9587394
2026-05-10 11:31:55.950,996,-0.72553015,-0.59881544,-0.68284476,3.793015,-0.39400807,-1.9587394
2026-05-10 11:31:55.960,997,-0.84193933,-0.56619155,-0.79809535,3.3113477,-1.1439979,-1.2861768
2026-05-10 11:31:55.970,998,-0.8352113333333334,-0.4549858933333333,-0.5572683166666667,2.0288871333333334,-1.4598152000000002,0.013642656666666678
2026-05-10 11:31:55.980,999,-0.8475189750000001,-0.4580297725,-0.505105725,1.72966495,-1.32832645,0.34880405000000003
2026-05-10 11:31:55.990,1000,-0.8827344,-0.46612477,-0.468381,1.5737416,-1.2313516,0.5412266
2026-05-10 11:31:56.000,1001,-0.92094808,-0.5355800266666666,-0.39051056666666667,1.0903436,-0.7801767333333333,1.3852387333333336
