timestamp,id,acc_x,acc_y,acc_z,gyro_x,gyro_y,gyro_z
2026-05-10 11:25:27.550,1,0.58655864,-0.18769388,0.9623123,0.075289145,0.75640386,-0.40454552
2026-05-10 11:25:27.560,2,0.593052895,-0.176595675,1.00691855,0.15515977250000001,0.69127038,-0.45242206
2026-05-10 11:25:27.570,3,0.59954715,-0.16549747,1.0515248,0.2350304,0.6261369,-0.5002986
2026-05-10 11:25:27.580,4,0.59954715,-0.16549747,1.0515248,0.2350304,0.6261369,-0.5002986
2026-05-10 11:25:27.590,5,0.6210118250000001,-0.16128989999999999,1.04868925,0.2350304,0.6261369,-0.5002986
2026-05-10 11:25:27.600,6,0.6424765,-0.15708233,1.0458537,0.2350304,0.6261369,-0.5002986
2026-05-10 11:25:27.610,7,0.6424765,-0.15708233,1.0458537,0.2350304,0.6261369,-0.5002986
2026-05-10 11:25:27.620,8,0.6424765,-0.15708233,1.0458537,0.2350304,0.6261369,-0.5002986
2026-05-10 11:25:27.630,9,0.6424765,-0.15708233,1.0458537,0.2350304,0.6261369,-0.5002986
2026-05-10 11:25:27.640,10,0.6424765,-0.15708233,1.0458537,0.2350304,0.6261369,-0.5002986
2026-05-10 11:25:27.650,11,0.6006142999999999,-0.157173805,0.9948141,0.48510335,0.375911215,-0.6125451
2026-05-10 11:25:27.660,12,0.5587521,-0.15726528,0.9437745,0.7351763,0.12568553,-0.7247916
2026-05-10 11:25:27.670,13,0.5587521,-0.15726528,0.9437745,0.9368636333333334,-0.08679376333333333,-0.812858
2026-05-10 11:25:27.680,14,0.5587521,-0.15726528,0.9437745,1.0377073,-0.19303341,-0.8568912
2026-05-10 11:25:27.690,15,0.5587521,-0.15726528,0.9437745,1.0377073,-0.19303341,-0.8568912
2026-05-10 11:25:27.700,16,0.5587521,-0.15726528,0.9437745,1.0377073,-0.19303341,-0.8568912000000001
2026-05-10 11:25:27.710,17,0.5587521,-0.15726528,0.9437745,1.0377073,-0.19303341,-0.8568912
2026-05-10 11:25:27.720,18,0.5587521,-0.15726528,0.9437745,1.0377073,-0.19303341,-0.8568912
2026-05-10 11:25:27.730,19,0.5587521,-0.15726528,0.9437745,1.0377073,-0.19303341,-0.8568912000000001
2026-05-10 11:25:27.740,20,0.5587521,-0.15726528,0.9437745,1.0377073,-0.19303341,-0.8568912
2026-05-10 11:25:27.750,21,0.5587521,-0.15726528,0.9437745,1.0377073,-0.19303341,-0.8568912
2026-05-10 11:25:27.760,22,0.5587521,-0.15726528,0.9437745,1.0377073,-0.19303341,-0.8568912
2026-05-10 11:25:27.770,23,0.5587521,-0.15726528,0.9437745,1.0377073,-0.19303341,-0.8568912
2026-05-10 11:25:27.780,24,0.5587521,-0.15726528,0.9437745,1.0377073,-0.19303341,-0.8568912000000001
2026-05-10 11:25:27.790,25,0.5587521,-0.15726528,0.9437745,1.0377073,-0.19303341,-0.8568912
2026-05-10 11:25:27.800,26,0.5587521,-0.15726528,0.9437745,1.0377073,-0.19303341,-0.8568912
2026-05-10 11:25:27.810,27,0.5591789625,-0.15555786,0.9181022999999999,1.0377073,-0.19303341,-0.8568912
2026-05-10 11:25:27.820,28,0.56045955,-0.1504356,0.8410857000000002,1.1086695,-0.28659761666666667,-0.8782715333333333
2026-05-10 11:25:27.830,29,0.56045955,-0.1504356,0.8410857,1.1441506,-0.33337972,-0.8889617
2026-05-10 11:25:27.840,30,0.56045955,-0.1504356,0.8410857,1.1441506,-0.33337972,-0.8889617
2026-05-10 11:25:27.850,31,0.56045955,-0.1504356,0.8410857,1.1441506,-0.33337972,-0.8889617
2026-05-10 11:25:27.860,32,0.56045955,-0.1504356,0.8410857000000002,1.1441506,-0.33337972,-0.8889617
2026-05-10 11:25:27.870,33,0.56045955,-0.1504356,0.8410857,1.1441506,-0.33337972,-0.8889617
2026-05-10 11:25:27.880,34,0.56045955,-0.1504356,0.8410857,1.1441506,-0.33337972,-0.8889617
2026-05-10 11:25:27.890,35,0.56045955,-0.1504356,0.8410857,1.1441506,-0.33337972,-0.8889617
2026-05-10 11:25:27.900,36,0.56045955,-0.1504356,0.8410857,1.1441506,-0.33337972,-0.8889617
2026-05-10 11:25:27.910,37,0.56045955,-0.1504356,0.8410857,1.1441506,-0.33337972,-0.8889617
2026-05-10 11:25:27.920,38,0.56045955,-0.1504356,0.8410857000000002,1.1441506,-0.33337972,-0.8889617
2026-05-10 11:25:27.930,39,0.56045955,-0.1504356,0.8410857,1.1441506,-0.33337972,-0.8889617
2026-05-10 11:25:27.940,40,0.56045955,-0.1504356,0.8410857,1.1441506,-0.33337972,-0.8889617
2026-05-10 11:25:27.950,41,0.56045955,-0.1504356,0.8410857,1.1441506,-0.33337972,-0.8889617
2026-05-10 11:25:27.960,42,0.56045955,-0.1504356,0.8410857,1.1441506,-0.33337972,-0.8889617
2026-05-10 11:25:27.970,43,0.56045955,-0.1504356,0.8410857000000002,1.1441506,-0.33337972,-0.8889617
2026-05-10 11:25:27.980,44,0.5697741025,-0.1518838575,0.825779925,1.1441506,-0.33337972,-0.8889617
2026-05-10 11:25:27.990,45,0.59771776,-0.15622863,0.7798626,1.1441506,-0.33337972,-0.8889617
2026-05-10 11:25:28.000,46,0.59771776,-0.15622863,0.7798626,1.1441506,-0.33337972,-0.8889617
2026-05-10 11:25:28.010,47,0.59771776,-0.15622863,0.7798626,1.1441506,-0.33337972,-0.8889617
2026-05-10 11:25:28.020,48,0.59771776,-0.15622863,0.7798626,1.1441506,-0.33337972,-0.8889617
2026-05-10 11:25:28.030,49,0.59771776,-0.15622863,0.7798626,1.1349494249999998,-0.3336851475,-0.90453875
2026-05-10 11:25:28.040,50,0.59771776,-0.15622863,0.7798626,1.1073459,-0.33460143,-0.9512699
2026-05-10 11:25:28.050,51,0.59771776,-0.15622863,0.7798626,1.1073459,-0.33460143,-0.9512699
2026-05-10 11:25:28.060,52,0.59771776,-0.15622863,0.7798626,1.1073459,-0.33460143,-0.9512699000000001
2026-05-10 11:25:28.070,53,0.59771776,-0.15622863,0.7798626,1.1073459,-0.33460143,-0.9512699
2026-05-10 11:25:28.080,54,0.59771776,-0.15622863,0.7798626,1.1073459,-0.33460143,-0.9512699
2026-05-10 11:25:28.090,55,0.59771776,-0.15622863,0.7798626,1.1073459,-0.33460143,-0.9512699
2026-05-10 11:25:28.100,56,0.59771776,-0.15622863,0.7798626,1.1073459,-0.33460143,-0.9512699000000001
2026-05-10 11:25:28.110,57,0.59771776,-0.15622863,0.7798626,1.1073459,-0.33460143,-0.9512699
2026-05-10 11:25:28.120,58,0.59771776,-0.15622863,0.7798626,1.1073459,-0.33460143,-0.9512699
2026-05-10 11:25:28.130,59,0.59771776,-0.15622863,0.7798626,1.1073459,-0.33460143,-0.9512699
2026-05-10 11:25:28.140,60,0.59771776,-0.15622863,0.7798626,1.1073459,-0.33460143,-0.9512699
2026-05-10 11:25:28.150,61,0.59771776,-0.15622863,0.7798626,1.1073459,-0.33460143,-0.9512699
2026-05-10 11:25:28.160,62,0.86118844,-0.3774000533333334,1.6292413666666667,4.5035021,-1.0191777866666667,-2.0768399333333334
2026-05-10 11:25:28.170,63,1.12465912,-0.5985714766666668,2.478620133333333,7.8996583000000005,-1.7037541433333334,-3.202409966666667
2026-05-10 11:25:28.180,64,1.3881298,-0.8197429,3.3279989,11.2958145,-2.3883305,-4.32798
2026-05-10 11:25:28.190,65,1.3881298,-0.8197429,3.3279989,11.2958145,-2.3883305,-4.32798
2026-05-10 11:25:28.200,66,1.3881298,-0.8197429,3.3279988999999994,11.2958145,-2.3883305,-4.32798
2026-05-10 11:25:28.210,67,1.3881298,-0.8197429,3.3279989,11.2958145,-2.3883305,-4.32798
2026-05-10 11:25:28.220,68,1.3881298,-0.8197429,3.3279989,11.2958145,-2.3883305,-4.32798
2026-05-10 11:25:28.230,69,1.3881298,-0.8197429,3.3279989,11.2958145,-2.3883305,-4.32798
2026-05-10 11:25:28.240,70,1.3881298,-0.8197429,3.3279989,11.2958145,-2.3883305,-4.32798
2026-05-10 11:25:28.250,71,1.3881298,-0.8197429,3.3279988999999994,11.2958145,-2.3883305,-4.32798
2026-05-10 11:25:28.260,72,1.3881298,-0.8197429,3.3279989,11.2958145,-2.3883305,-4.32798
2026-05-10 11:25:28.270,73,1.3881298,-0.8197429,3.3279989,11.2958145,-2.3883305,-4.32798
2026-05-10 11:25:28.280,74,1.3881298,-0.8197429,3.3279989,11.2958145,-2.3883305,-4.32798
2026-05-10 11:25:28.290,75,1.3881298,-0.8197429,3.3279988999999994,11.2958145,-2.3883305,-4.32798
2026-05-10 11:25:28.300,76,1.3881298,-0.8197429,3.3279989,11.2958145,-2.3883305,-4.32798
2026-05-10 11:25:28.310,77,1.3881298,-0.8197429,3.3279989,11.2958145,-2.3883305,-4.32798
2026-05-10 11:25:28.320,78,1.3881298,-0.8197429,3.3279989,11.2958145,-2.3883305,-4.32798
2026-05-10 11:25:28.330,79,1.3881298,-0.8197429,3.3279988999999994,11.2958145,-2.3883305,-4.32798
2026-05-10 11:25:28.340,80,1.3881298,-0.8197429,3.3279989,11.2958145,-2.3883305,-4.32798
2026-05-10 11:25:28.350,81,1.3881298,-0.8197429,3.3279989,11.2958145,-2.3883305,-4.32798
2026-05-10 11:25:28.360,82,1.3642564,-0.82992642,3.2068943,11.2958145,-2.3883305,-4.32798
2026-05-10 11:25:28.370,83,1.340383,-0.84010994,3.0857897,11.2958145,-2.3883305,-4.32798
2026-05-10 11:25:28.380,84,1.340383,-0.84010994,3.0857897,11.2958145,-2.3883305,-4.32798
2026-05-10 11:25:28.390,85,1.340383,-0.84010994,3.0857897,11.2958145,-2.3883305,-4.32798
2026-05-10 11:25:28.400,86,1.340383,-0.84010994,3.0857897,11.2958145,-2.3883305,-4.32798
2026-05-10 11:25:28.410,87,1.340383,-0.84010994,3.0857897,11.2958145,-2.3883305,-4.32798
2026-05-10 11:25:28.420,88,1.340383,-0.84010994,3.0857897,11.2958145,-2.3883305,-4.32798
2026-05-10 11:25:28.430,89,1.340383,-0.84010994,3.0857897,11.2958145,-2.3883305,-4.32798
2026-05-10 11:25:28.440,90,1.340383,-0.84010994,3.0857897,11.563144124999999,-2.608127375,-4.26475575
2026-05-10 11:25:28.450,91,1.340383,-0.84010994,3.0857897,11.652254,-2.681393,-4.243681
2026-05-10 11:25:28.460,92,1.340383,-0.84010994,3.0857897,11.652254,-2.681393,-4.243681
2026-05-10 11:25:28.470,93,1.340383,-0.84010994,3.0857897,11.652254,-2.681393,-4.243681
2026-05-10 11:25:28.480,94,1.340383,-0.84010994,3.0857897,11.652254,-2.681393,-4.243681
2026-05-10 11:25:28.490,95,1.340383,-0.84010994,3.0857897,11.652254,-2.681393,-4.243681
2026-05-10 11:25:28.500,96,1.340383,-0.84010994,3.0857897,11.652254,-2.681393,-4.243681
2026-05-10 11:25:28.510,97,1.340383,-0.84010994,3.0857897,11.652254,-2.681393,-4.243681
2026-05-10 11:25:28.520,98,1.340383,-0.84010994,3.0857897,11.652254,-2.681393,-4.243681
2026-05-10 11:25:28.530,99,1.340383,-0.84010994,3.0857897,11.652254,-2.681393,-4.243681
2026-05-10 11:25:28.540,100,1.340383,-0.84010994,3.0857897,11.652254,-2.681393,-4.243681
2026-05-10 11:25:28.550,101,1.340383,-0.84010994,3.0857897,11.652254,-2.681393,-4.243681
2026-05-10 11:25:28.560,102,1.43191275,-0.858190295,2.8543433499999997,11.767173,-2.7746263,-4.211916
2026-05-10 11:25:28.570,103,1.5234425,-0.87627065,2.622897,11.882092,-2.8678596,-4.180151
2026-05-10 11:25:28.580,104,1.5234425,-0.87627065,2.622897,11.882092,-2.8678596000000005,-4.180151
2026-05-10 11:25:28.590,105,1.5234425,-0.87627065,2.622897,11.882092,-2.8678596,-4.180151
2026-05-10 11:25:28.600,106,1.5872572,-0.84998861,2.4545335,11.83864475,-2.83724,-4.2200098
2026-05-10 11:25:28.610,107,1.7629382,-0.6667462,1.8749264499999998,11.7951975,-2.8066204,-4.2598686
2026-05-10 11:25:28.620,108,1.8748045,-0.50978583,1.4636829,10.835986,-2.6751316,-4.681671
2026-05-10 11:25:28.630,109,1.8748045,-0.50978583,1.4636829,10.835986,-2.6751316,-4.681671
2026-05-10 11:25:28.640,110,1.8748045,-0.50978583,1.4636829,10.835986,-2.6751316,-4.681671
2026-05-10 11:25:28.650,111,1.8748045,-0.50978583,1.4636829,10.835986,-2.6751316,-4.681671
2026-05-10 11:25:28.660,112,1.8748045,-0.50978583,1.4636829,10.835986,-2.6751316,-4.681671
2026-05-10 11:25:28.670,113,1.8748045,-0.50978583,1.4636829,10.835986,-2.6751316,-4.681671
2026-05-10 11:25:28.680,114,1.8748045,-0.50978583,1.4636829,10.835986,-2.6751316,-4.681671
2026-05-10 11:25:28.690,115,1.8748045,-0.50978583,1.4636829,10.835986,-2.6751316,-4.681671
2026-05-10 11:25:28.700,116,1.8748045,-0.50978583,1.4636829,10.835986,-2.6751316,-4.681671
2026-05-10 11:25:28.710,117,1.8748045,-0.50978583,1.4636829,10.835986,-2.6751316,-4.681671
2026-05-10 11:25:28.720,118,1.8748045,-0.50978583,1.4636829,10.835986,-2.6751316,-4.681671
2026-05-10 11:25:28.730,119,1.8748045,-0.50978583,1.4636829,10.835986,-2.6751316,-4.681671
2026-05-10 11:25:28.740,120,1.8748045,-0.50978583,1.4636829,10.835986,-2.6751316,-4.681671
2026-05-10 11:25:28.750,121,1.8748045,-0.50978583,1.4636829,10.835986,-2.6751316,-4.681671
2026-05-10 11:25:28.760,122,1.8748045,-0.50978583,1.4636829,10.835986,-2.6751316,-4.681671
2026-05-10 11:25:28.770,123,1.8748045,-0.50978583,1.4636829,10.835986,-2.6751316,-4.681671
2026-05-10 11:25:28.780,124,1.8748045,-0.50978583,1.4636829,10.835986,-2.6751316,-4.681671
2026-05-10 11:25:28.790,125,1.8748045,-0.50978583,1.4636829,10.835986,-2.6751316,-4.681671
2026-05-10 11:25:28.800,126,1.8748045,-0.50978583,1.4636829,10.835986,-2.6751316,-4.681671
2026-05-10 11:25:28.810,127,1.9491382,-0.34904477,1.1459814,10.030407,-2.4324653,-4.95595
2026-05-10 11:25:28.820,128,1.9491382,-0.34904477,1.1459814,10.030407,-2.4324653,-4.95595
2026-05-10 11:25:28.830,129,1.90918155,-0.3006730425,1.059040375,9.517738375,-2.21816615,-5.08831685
2026-05-10 11:25:28.840,130,1.7893116,-0.15555786,0.7982173,7.9797325,-1.5752687,-5.4854174
2026-05-10 11:25:28.850,131,1.4891113,-0.050002918,1.0271331,7.9797325,-1.5752686999999999,-5.4854174
2026-05-10 11:25:28.860,132,1.4891113,-0.050002918,1.0271331,7.9797325,-1.5752687,-5.4854174
2026-05-10 11:25:28.870,133,1.4891113,-0.050002918,1.0271331,7.9797325,-1.5752687,-5.4854174
2026-05-10 11:25:28.880,134,1.4891113,-0.050002918,1.0271331,7.9797325,-1.5752687,-5.4854174
2026-05-10 11:25:28.890,135,1.4891113,-0.050002918,1.0271331,7.9797325,-1.5752686999999999,-5.4854174
2026-05-10 11:25:28.900,136,1.4891113,-0.050002918,1.0271331,7.9797325,-1.5752687,-5.4854174
2026-05-10 11:25:28.910,137,1.4891113,-0.050002918,1.0271331,7.402732125,-1.4738269000000002,-5.54856555
2026-05-10 11:25:28.920,138,1.4891113,-0.050002918,1.0271331,5.671731,-1.1695015,-5.73801
2026-05-10 11:25:28.930,139,1.4891113,-0.050002918,1.0271331,5.671731,-1.1695015,-5.73801
2026-05-10 11:25:28.940,140,1.4891113,-0.050002918,1.0271331,5.671731,-1.1695015,-5.73801
2026-05-10 11:25:28.950,141,1.4891113,-0.050002918,1.0271331,5.671731,-1.1695015,-5.73801
2026-05-10 11:25:28.960,142,1.4891113,-0.050002918,1.0271331,5.671731,-1.1695015,-5.73801
2026-05-10 11:25:28.970,143,1.4891113,-0.050002918,1.0271331,5.671731,-1.1695015,-5.73801
2026-05-10 11:25:28.980,144,1.4891113,-0.050002918,1.0271331,5.671731,-1.1695015,-5.73801
2026-05-10 11:25:28.990,145,1.4891113,-0.050002918,1.0271331,5.671731,-1.1695015,-5.73801
2026-05-10 11:25:29.000,146,1.295471875,-0.08407502950000001,1.20810405,5.1379875,-1.43923675,-5.73308475
2026-05-10 11:25:29.010,147,1.2309254,-0.09543240000000001,1.2684277,4.960073,-1.5291485,-5.731443
2026-05-10 11:25:29.020,148,1.2309254,-0.0954324,1.2684277,4.960073,-1.5291485,-5.731443
2026-05-10 11:25:29.030,149,1.2309254,-0.0954324,1.2684277,4.960073,-1.5291485,-5.731443
2026-05-10 11:25:29.040,150,1.2309254,-0.0954324,1.2684277,4.960073,-1.5291485,-5.731443
2026-05-10 11:25:29.050,151,1.2309254,-0.09543240000000001,1.2684277,4.960073,-1.5291485,-5.731443
2026-05-10 11:25:29.060,152,1.2309254,-0.0954324,1.2684277,4.960073,-1.5291485,-5.731443
2026-05-10 11:25:29.070,153,1.2309254,-0.0954324,1.2684277,4.796628500000001,-1.942856975,-5.6445093
2026-05-10 11:25:29.080,154,1.2309254,-0.0954324,1.2684277,4.742147,-2.0807598,-5.6155314
2026-05-10 11:25:29.090,155,1.2309254,-0.09543240000000001,1.2684277,4.742147,-2.0807598,-5.615531399999999
2026-05-10 11:25:29.100,156,1.2309254,-0.0954324,1.2684277,4.742147,-2.0807598,-5.6155314
2026-05-10 11:25:29.110,157,1.2309254,-0.0954324,1.2684277,4.742147,-2.0807598,-5.6155314
2026-05-10 11:25:29.120,158,1.2309254,-0.09543240000000001,1.2684277,4.742147,-2.0807598,-5.615531399999999
2026-05-10 11:25:29.130,159,1.2309254,-0.0954324,1.2684277,4.742147,-2.0807598,-5.6155314
2026-05-10 11:25:29.140,160,1.2309254,-0.0954324,1.2684277,4.742147,-2.0807598,-5.6155314
2026-05-10 11:25:29.150,161,1.104698525,-0.175833435,1.4301902499999999,4.742147,-2.0807598,-5.6155314
2026-05-10 11:25:29.160,162,1.0626229,-0.20263378,1.4841111,4.742147,-2.0807598,-5.615531399999999
2026-05-10 11:25:29.170,163,1.0626229,-0.20263378,1.4841111,4.742147,-2.0807598,-5.6155314
2026-05-10 11:25:29.180,164,1.0626229,-0.20263378,1.4841111,4.742147,-2.0807598,-5.6155314
2026-05-10 11:25:29.190,165,1.0626229,-0.20263378,1.4841111,4.742147,-2.0807598,-5.6155314
2026-05-10 11:25:29.200,166,1.0626229,-0.20263378,1.4841111,4.742147,-2.0807598,-5.615531399999999
2026-05-10 11:25:29.210,167,1.0626229,-0.20263378,1.4841111,4.742147,-2.0807598,-5.6155314
2026-05-10 11:25:29.220,168,0.98896015,-0.28519958,1.6968673,4.8417177,-2.616794,-5.479461
2026-05-10 11:25:29.230,169,0.98896015,-0.28519958,1.6968673,4.8417177,-2.616794,-5.479461
2026-05-10 11:25:29.240,170,0.98896015,-0.28519958,1.6968673,4.8417177,-2.616794,-5.479461
2026-05-10 11:25:29.250,171,0.98896015,-0.28519958,1.6968673,4.8417177,-2.616794,-5.479461
2026-05-10 11:25:29.260,172,0.98896015,-0.28519958,1.6968673,4.8417177,-2.616794,-5.479461
2026-05-10 11:25:29.270,173,0.98896015,-0.28519958,1.6968673,4.8417177,-2.616794,-5.479461
2026-05-10 11:25:29.280,174,1.03815005,-0.36390334,1.8328507666666667,5.081177100000001,-2.9096021333333333,-5.428250333333334
2026-05-10 11:25:29.290,175,1.062745,-0.40325522,1.9008425,5.2009068,-3.0560062,-5.402645
2026-05-10 11:25:29.300,176,1.073355325,-0.45530093,1.90619345,5.2009068,-3.0560062,-5.402645
2026-05-10 11:25:29.310,177,1.0768921,-0.4726495,1.9079771,5.4353264,-3.1431308,-5.3991325
2026-05-10 11:25:29.320,178,1.0768921,-0.4726495,1.9079771,5.669746,-3.2302554,-5.39562
2026-05-10 11:25:29.330,179,1.0768921,-0.4726495,1.9079771,5.669746,-3.2302553999999994,-5.39562
2026-05-10 11:25:29.340,180,1.0768921,-0.4726495,1.9079771,5.669746,-3.2302554,-5.39562
2026-05-10 11:25:29.350,181,1.0768921,-0.4726495,1.9079771,5.669746,-3.2302554,-5.39562
2026-05-10 11:25:29.360,182,0.9739440699999999,-0.50566975,1.6591822250000001,5.669746,-3.2302554,-5.39562
2026-05-10 11:25:29.370,183,0.93962806,-0.5166765,1.5762506,6.016412,-2.81334,-5.3458343
2026-05-10 11:25:29.380,184,0.93962806,-0.5166765,1.5762506,6.016412,-2.81334,-5.3458343
2026-05-10 11:25:29.390,185,0.93962806,-0.5166765,1.5762506,6.016412,-2.81334,-5.3458343
2026-05-10 11:25:29.400,186,0.93962806,-0.5166765,1.5762506,6.016412,-2.81334,-5.3458343
2026-05-10 11:25:29.410,187,1.1335824733333333,-0.55070288,1.7611394,2.2974133333333335,-0.9159416,-1.6555465333333337
2026-05-10 11:25:29.420,188,1.3275368866666668,-0.58472926,1.9460282000000002,-1.4215853333333328,0.9814568000000001,2.0347412333333326
2026-05-10 11:25:29.430,189,1.5214913,-0.61875564,2.130917,-5.140584,2.8788552,5.725029
2026-05-10 11:25:29.440,190,1.4601462,-0.4897237,2.0599372,-5.140584,2.8788552,5.725029
2026-05-10 11:25:29.450,191,1.3743280999999998,-0.37843670333333335,1.7163197,-3.2623258000000006,1.3892603,5.274058
2026-05-10 11:25:29.460,192,1.3503836,-0.33849534,1.5803361,-3.2623258,1.3892603,5.274058
2026-05-10 11:25:29.470,193,1.3503836,-0.33849534,1.5803361,-2.9766318000000003,1.267239965,5.23561165
2026-05-10 11:25:29.480,194,1.3503836,-0.33849534,1.5803361,-2.1195498,0.90117896,5.1202726
2026-05-10 11:25:29.490,195,1.323004,-0.30669472,1.38410515,-2.02135315,0.96906138,5.099350449999999
2026-05-10 11:25:29.500,196,1.2956244,-0.2748941,1.1878742,-1.9231565,1.0369438,5.0784283
2026-05-10 11:25:29.510,197,1.3367852999999998,-0.1794921875,0.7738408999999999,-4.630129625,2.2653555250000004,4.863556525
2026-05-10 11:25:29.520,198,1.3505056,-0.14769155,0.6358298,-5.532454,2.6748261,4.7919326
2026-05-10 11:25:29.530,199,1.3505056,-0.14769155,0.6358298,-5.532454,2.6748261,4.7919326
2026-05-10 11:25:29.540,200,1.3505056,-0.14769155,0.6358298,-5.93547225,2.80723115,4.6444849999999995
2026-05-10 11:25:29.550,201,1.3497739,-0.17159538,0.7385187,-6.3384905,2.9396362,4.4970374
2026-05-10 11:25:29.560,202,1.3497739,-0.17159538,0.7385186999999999,-6.3384905,2.9396362000000003,4.4970374
2026-05-10 11:25:29.570,203,1.3497739,-0.17159538,0.7385187,-6.448408025,2.9411633999999998,4.414226875
2026-05-10 11:25:29.580,204,1.347502425,-0.18084896749999999,0.774877525,-6.7781606,2.945745,4.1657953
2026-05-10 11:25:29.590,205,1.340688,-0.20860973,0.883954,-6.7781606,2.945745,4.1657953
2026-05-10 11:25:29.600,206,1.340688,-0.20860972999999997,0.883954,-6.7781606,2.945745,4.1657953
2026-05-10 11:25:29.610,207,1.340688,-0.20860973,0.883954,-6.7781606,2.945745,4.1657953
2026-05-10 11:25:29.620,208,1.340688,-0.20860973,0.883954,-6.7781606,2.945745,4.1657953
2026-05-10 11:25:29.630,209,1.340688,-0.20860972999999997,0.883954,-6.7781606,2.945745,4.1657953
2026-05-10 11:25:29.640,210,1.2326024000000002,-0.261814065,1.00216215,-6.7781606,2.945745,4.1657953
2026-05-10 11:25:29.650,211,1.1245168,-0.3150184,1.1203703,-6.7781606,2.945745,4.1657953
2026-05-10 11:25:29.660,212,1.1245168,-0.3150184,1.1203703,-6.87185215,2.7958538500000003,3.9178604999999997
2026-05-10 11:25:29.670,213,1.1245168,-0.3150184,1.1203703,-6.9655437000000004,2.6459627,3.6699257
2026-05-10 11:25:29.680,214,1.0043269,-0.33971494,1.1870205,-6.9655437,2.6459627,3.6699257
2026-05-10 11:25:29.690,215,1.0043269,-0.33971494,1.1870205,-6.9655437,2.6459627,3.6699257
2026-05-10 11:25:29.700,216,1.0043269,-0.33971494,1.1870205,-6.9655437,2.6459627,3.6699257
2026-05-10 11:25:29.710,217,1.0043269,-0.3397149400000001,1.1870205,-6.9655437000000004,2.6459627,3.6699257
2026-05-10 11:25:29.720,218,1.0043269,-0.33971494,1.1870205,-6.9655437,2.6459627,3.6699257
2026-05-10 11:25:29.730,219,1.0043269,-0.33971494,1.1870205,-6.9655437,2.6459627,3.6699257
2026-05-10 11:25:29.740,220,1.0043269,-0.33971494,1.1870205,-6.9282044250000006,2.5046239249999998,3.604295825
2026-05-10 11:25:29.750,221,1.0043269,-0.3397149400000001,1.1870205,-6.915758,2.457511,3.5824192
2026-05-10 11:25:29.760,222,1.0043269,-0.33971494,1.1870205,-6.915758,2.457511,3.5824192
2026-05-10 11:25:29.770,223,1.0043269,-0.33971494,1.1870205,-6.814469,2.2044981999999997,3.5852063
2026-05-10 11:25:29.780,224,0.8584342,-0.35956366,1.3010362500000001,-6.510602,1.4454598,3.5935676
2026-05-10 11:25:29.790,225,0.825734125,-0.37566216,1.36209165,-6.384343749999999,1.2202032625,3.643925775
2026-05-10 11:25:29.800,226,1.0089613,-0.3568501,1.5175886,-5.4599137,0.0143553335,4.04011
2026-05-10 11:25:29.810,227,1.0089613,-0.3568501,1.5175886,-5.4599137,0.0143553335,4.04011
2026-05-10 11:25:29.820,228,1.13994455,-0.25059389,1.506216,-5.4599137,0.0143553335,4.04011
2026-05-10 11:25:29.830,229,1.3799586,-0.052807956999999996,1.3781902,-4.6083674,-0.54305923,4.1683917
2026-05-10 11:25:29.840,230,1.3799586,-0.052807957,1.3781902,-4.5977156,-0.4838434525,4.124180174999999
2026-05-10 11:25:29.850,231,1.3799586,-0.052807957,1.3781902,-4.594165,-0.46410486,4.109443
2026-05-10 11:25:29.860,232,1.5110638,0.04045967649999999,1.3173939,-4.594165,-0.46410486,4.109443
2026-05-10 11:25:29.870,233,1.642169,0.13372731,1.2565976,-4.594165,-0.46410486,4.109443
2026-05-10 11:25:29.880,234,1.642169,0.13372731,1.2565976,-4.594165,-0.46410486,4.109443
2026-05-10 11:25:29.890,235,1.642169,0.13372731,1.2565976,-4.594165,-0.46410486,4.109443
2026-05-10 11:25:29.900,236,1.7359702000000001,0.172555795,1.2553628000000001,-4.6286023499999995,-0.39622247,4.026518149999999
2026-05-10 11:25:29.910,237,2.0173738,0.28904125,1.2516584,-4.6630397,-0.32834008,3.9435933
2026-05-10 11:25:29.920,238,2.0173738,0.28904125,1.2516584,-4.6630397,-0.32834008,3.9435933
2026-05-10 11:25:29.930,239,2.0173738,0.28904125,1.2516584,-4.7337475,-0.05879578,3.5616498
2026-05-10 11:25:29.940,240,2.0546320500000004,0.445910175,1.251262,-4.76024375,0.03443753000000001,3.45757365
2026-05-10 11:25:29.950,241,2.0918903,0.6027791,1.2508656,-4.78674,0.12767084,3.3534975
2026-05-10 11:25:29.960,242,2.0918903,0.6027791,1.2508656,-4.801859,0.18829922,3.3608279000000003
2026-05-10 11:25:29.970,243,2.0918903,0.6027791,1.2508656,-4.816978,0.2489276,3.3681583
2026-05-10 11:25:29.980,244,2.0918903,0.6027791,1.2508656,-4.816978,0.2489276,3.3681583
2026-05-10 11:25:29.990,245,2.0913873499999998,0.6735759125,1.2777117,-4.816978,0.2489276,3.3681583
2026-05-10 11:25:30.000,246,2.0912197,0.69717485,1.2866604,-4.816978,0.2489276,3.3681582999999997
2026-05-10 11:25:30.010,247,2.0912197,0.69717485,1.2866604,-4.816978,0.2489276,3.3681583
2026-05-10 11:25:30.020,248,2.0912197,0.69717485,1.2866604,-4.79624675,0.271796865,3.40713915
2026-05-10 11:25:30.030,249,2.0912197,0.69717485,1.2866604,-4.734053,0.3404046600000001,3.5240817
2026-05-10 11:25:30.040,250,2.0912197,0.69717485,1.2866604,-4.734053,0.34040466,3.5240817
2026-05-10 11:25:30.050,251,2.306537,0.90474784,1.425388,-4.734053,0.34040466,3.5240817
2026-05-10 11:25:30.060,252,2.306537,0.90474784,1.425388,-4.734053,0.34040466,3.5240817
2026-05-10 11:25:30.070,253,2.306537,0.9047478400000001,1.425388,-4.734053,0.3404046600000001,3.5240817
2026-05-10 11:25:30.080,254,2.306537,0.90474784,1.425388,-4.734053,0.34040466,3.5240817
2026-05-10 11:25:30.090,255,2.6279583,1.0951248,1.425693,-4.471228,-0.18661933,3.5402696
2026-05-10 11:25:30.100,256,2.6279583,1.0951248,1.425693,-4.471228,-0.18661933,3.5402696
2026-05-10 11:25:30.110,257,2.7881707666666666,1.2193191333333333,1.4708175333333333,-4.471228,-0.18661933,3.5402696
2026-05-10 11:25:30.120,258,2.868277,1.2814163,1.4933798,-4.471228,-0.18661933,3.5402696
2026-05-10 11:25:30.130,259,2.8682770000000004,1.2814163,1.4933798000000003,-4.418846333333334,-0.33220888666666665,3.521638233333333
2026-05-10 11:25:30.140,260,2.8682770000000004,1.2814163,1.4933798000000003,-4.314083,-0.623388,3.4843755
2026-05-10 11:25:30.150,261,2.868277,1.2814163,1.4933798,-4.314083,-0.623388,3.4843755
2026-05-10 11:25:30.160,262,2.8682770000000004,1.2814163,1.4933798000000003,-4.314083,-0.623388,3.4843755
2026-05-10 11:25:30.170,263,2.868277,1.2814163,1.4933798,-4.314083,-0.623388,3.4843755
2026-05-10 11:25:30.180,264,2.961737833333333,1.3652219666666667,1.5093969999999999,-4.227543766666667,-0.7680103333333334,3.4339282
2026-05-10 11:25:30.190,265,3.1486595,1.5328333,1.5414314,-4.0544653,-1.057255,3.3330336
2026-05-10 11:25:30.200,266,3.1486595,1.5328333,1.5414314,-4.0544653,-1.057255,3.3330336
2026-05-10 11:25:30.210,267,3.48715475,1.83489365,1.64729115,-4.241237399999999,-0.6585891150000001,2.999043
2026-05-10 11:25:30.220,268,3.9021382333333334,2.2551925666666666,1.9220632666666668,-4.3290492333333335,-0.24806221166666664,2.7198775666666664
2026-05-10 11:25:30.230,269,4.0551147,2.4916697,2.259888,-4.2331433,-0.049938235,2.5164595
2026-05-10 11:25:30.240,270,4.10083385,2.6148324250000003,2.4064514,-4.2331433,-0.049938235,2.5164595
2026-05-10 11:25:30.250,271,4.2379913,2.9843206,2.8461416,-4.2331433,-0.049938235,2.5164595
2026-05-10 11:25:30.260,272,4.2379913,2.9843206,2.8461416000000006,-4.2331433,-0.049938235,2.5164595
2026-05-10 11:25:30.270,273,4.25604115,3.01981045,2.895489,-3.1651982,0.08281041875,1.761773575
2026-05-10 11:25:30.280,274,4.3101907,3.12628,3.0435312,-1.446223445,-0.38751764499999997,0.7670940300000001
2026-05-10 11:25:30.290,275,4.3101907,3.12628,3.0435312,-0.08323039,-0.90209526,0.02397646
2026-05-10 11:25:30.300,276,4.3101907,3.12628,3.0435312,-0.08323039,-0.90209526,0.02397646
2026-05-10 11:25:30.310,277,4.307644775,3.1197705,3.0337593,-0.08323039,-0.90209526,0.02397646
2026-05-10 11:25:30.320,278,4.300007,3.100242,3.0044436,-0.08323039,-0.90209526,0.02397646
2026-05-10 11:25:30.330,279,4.300007,3.100242,3.0044436,-0.08323039,-0.90209526,0.02397646
2026-05-10 11:25:30.340,280,4.300007,3.100242,3.0044436,-0.08323039,-0.90209526,0.02397646
2026-05-10 11:25:30.350,281,4.300007,3.100242,3.0044436,-0.08323039,-0.90209526,0.02397646
2026-05-10 11:25:30.360,282,4.077799,2.921939,2.4904504,2.1917844,-1.2466233,-1.2617421
2026-05-10 11:25:30.370,283,4.1726823,2.6770465,1.5972273,2.1917844,-1.2466233,-1.2617421
2026-05-10 11:25:30.380,284,4.1726823,2.6770465,1.5972273,2.1917844,-1.2466233,-1.2617421
2026-05-10 11:25:30.390,285,4.1726823,2.6770465,1.5972273,2.1128810000000002,-0.7385361133333334,-1.8065321333333333
2026-05-10 11:25:30.400,286,3.9925194,2.5303001,1.35538395,1.9550742,0.27763826,-2.8961122
2026-05-10 11:25:30.410,287,3.8123565,2.3835537,1.1135406,1.9550742,0.27763826,-2.8961122
2026-05-10 11:25:30.420,288,3.4094675,2.2286057,1.0730504,1.7504343666666669,0.40184752333333335,-3.016554466666667
2026-05-10 11:25:30.430,289,3.4094675,2.2286057,1.0730504,1.3411547,0.65026605,-3.257439
2026-05-10 11:25:30.440,290,2.915963,2.0146298,1.1747028,0.8167268,0.5143485,-3.33227
2026-05-10 11:25:30.450,291,2.915963,2.0146298,1.1747028,0.8167268,0.5143485,-3.33227
2026-05-10 11:25:30.460,292,2.915963,2.0146298,1.1747028,0.8167268,0.5143485,-3.33227
2026-05-10 11:25:30.470,293,2.915963,2.0146298,1.1747028,0.8167268,0.5143485,-3.33227
2026-05-10 11:25:30.480,294,2.915963,2.0146298,1.1747028,0.8167268,0.5143485,-3.33227
2026-05-10 11:25:30.490,295,2.915963,2.0146298,1.1747028,0.8167268,0.5143485,-3.33227
2026-05-10 11:25:30.500,296,2.915963,2.0146298,1.1747028,0.8167268,0.5143485,-3.33227
2026-05-10 11:25:30.510,297,3.01758455,1.8941654749999999,1.2591283500000001,0.8167268,0.5143485,-3.33227
2026-05-10 11:25:30.520,298,3.0514584,1.8540107,1.2872702,0.8167268,0.5143485,-3.33227
2026-05-10 11:25:30.530,299,3.0514584,1.8540107,1.2872702,0.4552473000000001,0.17409660000000002,-3.3947308
2026-05-10 11:25:30.540,300,3.0514584,1.8540107,1.2872702,0.4552473,0.1740966,-3.3947308
2026-05-10 11:25:30.550,301,3.0514584,1.8540107,1.2872702,0.36216671375000004,0.139849966,-3.4949891
2026-05-10 11:25:30.560,302,3.2981195,1.6672314,1.4483773,0.082924955,0.037110064,-3.795764
2026-05-10 11:25:30.570,303,3.2981195,1.6672313999999997,1.4483773,0.082924955,0.037110064,-3.795764
2026-05-10 11:25:30.580,304,3.15163215,1.4947366,1.5837815,-0.0818177675,0.06211736025,-4.13288525
2026-05-10 11:25:30.590,305,2.4196228250000003,0.9446892875,2.0465371,-0.12339477750000001,0.322307785,-4.763527249999999
2026-05-10 11:25:30.600,306,2.0837193,0.55832523,2.706926,1.0257955,0.54428095,-4.5817947
2026-05-10 11:25:30.610,307,2.0837193,0.55832523,2.706926,1.0257955,0.54428095,-4.5817947
2026-05-10 11:25:30.620,308,2.0837193,0.55832523,2.706926,1.0257955,0.54428095,-4.5817947
2026-05-10 11:25:30.630,309,2.0837193,0.55832523,2.706926,1.0257955,0.54428095,-4.5817947
2026-05-10 11:25:30.640,310,2.0837193,0.55832523,2.706926,1.0257955,0.54428095,-4.5817947
2026-05-10 11:25:30.650,311,2.0837193,0.55832523,2.706926,1.0257955,0.54428095,-4.5817947
2026-05-10 11:25:30.660,312,2.0955491,0.5297463433333333,2.8052246666666663,1.0257955,0.54428095,-4.5817947
2026-05-10 11:25:30.670,313,2.101464,0.5154569,2.854374,1.0257955,0.54428095,-4.5817947
2026-05-10 11:25:30.680,314,2.101464,0.5154569,2.854374,1.0257955,0.54428095,-4.5817947
2026-05-10 11:25:30.690,315,2.101464,0.5154569,2.854374,1.0257955,0.54428095,-4.5817947
2026-05-10 11:25:30.700,316,2.101464,0.5154569,2.854374,1.0257955,0.54428095,-4.5817947
2026-05-10 11:25:30.710,317,2.101464,0.5154569,2.854374,1.0257955,0.54428095,-4.5817947
2026-05-10 11:25:30.720,318,2.101464,0.5154569,2.854374,1.6264287,0.55573463,-4.717254
2026-05-10 11:25:30.730,319,2.0439454,0.468091325,2.88500075,1.6264287,0.55573463,-4.717254
2026-05-10 11:25:30.740,320,1.70610565,0.2425751225,2.94843425,4.130861749999999,0.44722971,-5.16043685
2026-05-10 11:25:30.750,321,1.651011,0.21476863,2.938952,4.397619,0.44028112,-5.184566
2026-05-10 11:25:30.760,322,1.57353695,-0.080004668,2.3032137,6.489374175,0.41298307749999996,-5.387105975
2026-05-10 11:25:30.770,323,1.7236575,-0.28552478666666664,1.7841691333333334,7.0515227,0.41355577000000004,-5.482209999999999
2026-05-10 11:25:30.780,324,1.9059039,-0.40447482,1.49277,7.0515227,0.41355577,-5.48221
2026-05-10 11:25:30.790,325,1.9059039,-0.40447482,1.49277,7.0515227,0.41355577,-5.48221
2026-05-10 11:25:30.800,326,1.9059039,-0.40447482000000007,1.49277,7.0515227,0.41355577000000004,-5.482209999999999
2026-05-10 11:25:30.810,327,1.92374025,-0.54948328,1.29772815,7.539528000000001,0.23991732999999998,-6.1035363
2026-05-10 11:25:30.820,328,1.9415766,-0.69449174,1.1026863,7.609243,0.06291912,-6.4406576
2026-05-10 11:25:30.830,329,1.85696805,-0.783033485,1.00024128,7.507648375,-0.20887772999999998,-6.61349465
2026-05-10 11:25:30.840,330,1.7081077333333334,-0.8765755333333334,0.82681656,7.4737835,-0.29947668,-6.671107
2026-05-10 11:25:30.850,331,1.4293517,-0.9473114,0.4753326,7.05305,-0.5392413,-6.657973
2026-05-10 11:25:30.860,332,1.4293517,-0.9473114,0.4753326,7.05305,-0.5392413,-6.657973
2026-05-10 11:25:30.870,333,1.3414807,-0.91907805,0.25690526,6.3050456,-0.6401868,-6.502354999999999
2026-05-10 11:25:30.880,334,1.333522975,-0.8955247875,0.20545406000000002,5.76672065,-0.7016932874999999,-6.386328799999999
2026-05-10 11:25:30.890,335,1.3789829500000002,-0.8024858,0.36303947999999997,4.6606727,-1.4362587125,-6.271791675
2026-05-10 11:25:30.900,336,1.3513187000000002,-0.7016466,0.6689618133333334,3.9641081333333332,-1.9075794000000001,-6.182516333333333
2026-05-10 11:25:30.910,337,1.321723475,-0.699492025,0.90363506,3.831423225,-1.88192305,-6.002552825
2026-05-10 11:25:30.920,338,1.3564816,-0.7057119,1.1368346,3.8890736,-1.8385516,-5.8191023
2026-05-10 11:25:30.930,339,1.3839628666666666,-0.7143099666666667,1.1359402666666667,4.0911172,-1.8611536666666666,-5.821749366666666
2026-05-10 11:25:30.940,340,1.361009275,-0.74187256,1.1764101500000002,4.70148595,-2.1654410000000004,-5.783023125
2026-05-10 11:25:30.950,341,1.177751625,-0.6941715825,1.174595975,6.824701,-6.070893325,-5.4248271
2026-05-10 11:25:30.960,342,1.2651957999999999,-0.5935407,0.74193352,7.82442,-8.906568,-5.4536524
2026-05-10 11:25:30.970,343,1.2820871,-0.5716187,0.45630714,7.82442,-8.906568,-5.4536524
2026-05-10 11:25:30.980,344,1.320077075,-0.4799365325,0.0842274875,6.64018145,-8.115306625,-5.539517025
2026-05-10 11:25:30.990,345,1.2973318,-0.36459443,-0.40051118,4.9486194,-6.953632,-5.6237783
2026-05-10 11:25:31.000,346,1.18327025,-0.339745415,-0.46075858999999997,3.8888445000000003,-6.2357890000000005,-5.48381365
2026-05-10 11:25:31.010,347,1.0384753,-0.30007848,-0.5410682,1.478752,-4.558582,-4.9435797
2026-05-10 11:25:31.020,348,1.086267725,-0.301237085,-0.529192495,1.0054841575,-4.17415685,-4.9011627749999995
2026-05-10 11:25:31.030,349,1.2395236,-0.3645792,-0.4216404525,-0.6789003775,-2.81089645,-4.8033481
2026-05-10 11:25:31.040,350,1.219156475,-0.58517135,-0.0943195275,-1.3658947,-2.25768155,-4.916129124999999
2026-05-10 11:25:31.050,351,1.0691477,-0.7081510999999999,0.2403189,-1.0456486,-2.4879014,-4.9895473
2026-05-10 11:25:31.060,352,1.0691477,-0.7081511,0.2403189,-1.0456486,-2.4879014,-4.9895473
2026-05-10 11:25:31.070,353,1.0691477,-0.7081511,0.2403189,-1.0456486,-2.4879014,-4.9895473
2026-05-10 11:25:31.080,354,1.0691477,-0.7081511,0.2403189,-1.0456486,-2.4879014,-4.9895473
2026-05-10 11:25:31.090,355,0.9261718999999999,-0.7758176333333333,0.4657995133333333,-1.0456486,-2.4879014,-4.9895473
2026-05-10 11:25:31.100,356,0.45124584999999995,-0.9985338500000001,0.99585077,-1.0456486,-2.4879014,-4.9895473
2026-05-10 11:25:31.110,357,0.2622714,-1.085917,1.0749408,-0.639194135,-2.491032075,-4.950719149999999
2026-05-10 11:25:31.120,358,-0.8535559449999999,-1.72144185,0.61311505,0.31703907,-1.9830213,-4.5135307
2026-05-10 11:25:31.130,359,-1.0156081,-1.8348631,0.550337,0.31703907,-1.9830213,-4.5135307
2026-05-10 11:25:31.140,360,-1.0156081,-1.8348631,0.550337,0.31703907,-1.9830213,-4.5135307
2026-05-10 11:25:31.150,361,-1.0156081,-1.8348631,0.550337,0.31703907,-1.9830213,-4.5135307
2026-05-10 11:25:31.160,362,-1.1924070333333334,-1.9363527333333332,0.5693218333333333,0.16030122666666666,-1.8389589333333334,-4.377867666666666
2026-05-10 11:25:31.170,363,-1.5460049,-2.139332,0.6072915,-0.15317446,-1.5508342,-4.1065416
2026-05-10 11:25:31.180,364,-1.658221825,-2.1796545,0.6623556925,-0.226478285,-1.445918075,-3.9127064
2026-05-10 11:25:31.190,365,-2.1059155,-2.3757484,0.9685931,-0.43233988,-0.875828,-2.6215281
2026-05-10 11:25:31.200,366,-2.1059155,-2.3757484,0.9685931,-0.43233988,-0.8758279999999999,-2.6215281
2026-05-10 11:25:31.210,367,-2.1059155,-2.3757484,0.9685931,-0.3674354475,-0.7564802100000001,-2.3945535
2026-05-10 11:25:31.220,368,-2.1059155,-2.3757484,0.9685931,-0.17272215,-0.39843684,-1.7136297
2026-05-10 11:25:31.230,369,-2.1059155,-2.3757484,0.9685931,-0.17272215,-0.39843684,-1.7136297
2026-05-10 11:25:31.240,370,-2.1059155,-2.3757484,0.9685931,-0.17272215,-0.39843684,-1.7136297
2026-05-10 11:25:31.250,371,-2.1059155,-2.3757484,0.9685931,-0.17272215,-0.39843684,-1.7136297
2026-05-10 11:25:31.260,372,-2.2923899,-2.4594119,1.0119493,-0.17272215,-0.39843684,-1.7136297
2026-05-10 11:25:31.270,373,-2.2923899,-2.4594119,1.0119493,-0.17272215,-0.39843684,-1.7136297
2026-05-10 11:25:31.280,374,-2.2923899,-2.4594119,1.0119493,-0.17272215,-0.39843684,-1.7136297
2026-05-10 11:25:31.290,375,-2.2923899,-2.4594119,1.0119493,-0.17272215,-0.39843684,-1.7136297
2026-05-10 11:25:31.300,376,-2.2381386666666665,-2.431829,0.8340323966666666,0.24933482666666665,0.13321955333333332,-0.6056728833333334
2026-05-10 11:25:31.310,377,-1.9890184,-2.28845685,0.5118896150000001,0.43890668499999996,0.6524041,0.605443825
2026-05-10 11:25:31.320,378,-1.8373632,-2.2083607,0.4224027,0.3491095,0.7910705,0.90194255
2026-05-10 11:25:31.330,379,-1.4338641,-2.0017023,0.20208496,-0.08704830000000001,1.2139419,1.2110404
2026-05-10 11:25:31.340,380,-1.4338641,-2.0017023,0.20208496,-0.0870483,1.2139419,1.2110404
2026-05-10 11:25:31.350,381,-1.4338641,-2.0017023,0.20208496,-0.0870483,1.2139419,1.2110404
2026-05-10 11:25:31.360,382,-1.4338641,-2.0017023,0.20208496,-0.0870483,1.2139419,1.2110404
2026-05-10 11:25:31.370,383,-1.4338641,-2.0017023,0.20208496,-0.593761,1.7311921000000001,1.344209
2026-05-10 11:25:31.380,384,-1.4338641,-2.0017023,0.20208496,-0.593761,1.7311921,1.344209
2026-05-10 11:25:31.390,385,-1.2912948499999999,-1.8233381,0.1166836375,-0.9669233,2.09503875,1.45363025
2026-05-10 11:25:31.400,386,-1.2347062,-1.7054653,0.09311519,-1.6456709250000001,2.7613781,1.844240375
2026-05-10 11:25:31.410,387,-1.2570245,-1.5880195,0.22873287,-1.7475327,2.862209,1.93797
2026-05-10 11:25:31.420,388,-1.2570245,-1.5880195,0.22873287,-1.7475327,2.862209,1.93797
2026-05-10 11:25:31.430,389,-1.2549207500000001,-1.5530784,0.256569855,-1.7804431,2.91016195,2.0581576999999998
2026-05-10 11:25:31.440,390,-1.252817,-1.5181373,0.28440684,-1.8133535,2.9581149,2.1783454
2026-05-10 11:25:31.450,391,-1.1346394,-1.3768486,0.4454528,-1.8125390000000001,2.9726229666666666,2.3283128333333334
2026-05-10 11:25:31.460,392,-1.1346394,-1.3768486,0.4454528,-1.81091,3.0016391,2.6282477
2026-05-10 11:25:31.470,393,-1.0738584075,-1.344224775,0.4779089625,-1.81091,3.0016391,2.6282477
2026-05-10 11:25:31.480,394,-0.89151543,-1.2463533,0.57527745,-1.81091,3.0016391,2.6282477
2026-05-10 11:25:31.490,395,-0.89151543,-1.2463533,0.57527745,-1.81091,3.0016391,2.6282477
2026-05-10 11:25:31.500,396,-0.89151543,-1.2463533,0.57527745,-1.62933035,3.09617055,2.9017626
2026-05-10 11:25:31.510,397,-0.89151543,-1.2463533,0.57527745,-1.6481144,3.0344732,2.937193
2026-05-10 11:25:31.520,398,-0.6600791433333333,-1.1381355666666666,0.6306872166666667,-1.6481144,3.0344731999999994,2.937193
2026-05-10 11:25:31.530,399,-0.544361,-1.0840267,0.6583921,-1.5688164500000001,3.1514157249999997,3.0346641500000002
2026-05-10 11:25:31.540,400,-0.544361,-1.0840267,0.6583921,-1.3309226,3.5022433,3.3270776
2026-05-10 11:25:31.550,401,-0.544361,-1.0840267,0.6583921,-1.3309226,3.5022433,3.3270776
2026-05-10 11:25:31.560,402,-0.544361,-1.0840267,0.6583921,-1.3309226,3.5022433,3.3270776000000004
2026-05-10 11:25:31.570,403,-0.33501956,-0.98054504,0.6366225,-1.3309226,3.5022433,3.3270776
2026-05-10 11:25:31.580,404,-0.248916972,-0.9014703049999999,0.573524305,-1.3854041750000001,3.704134225,3.34139475
2026-05-10 11:25:31.590,405,0.009390792,-0.6642461,0.38422972,-2.0879374,4.8899765,3.2678236999999997
2026-05-10 11:25:31.600,406,0.023019636750000003,-0.421533755,0.284894665,-2.0879374,4.8899765,3.2678237
2026-05-10 11:25:31.610,407,0.027562585,-0.34062964,0.25178298,-2.6213756,5.2381697,3.1807754
2026-05-10 11:25:31.620,408,-0.14305714,-0.23458685999999998,0.38770555999999995,-3.238044,5.669440300000001,3.169169
2026-05-10 11:25:31.630,409,-0.18083373,-0.23530337,0.42247892,-3.238044,5.6694403,3.169169
2026-05-10 11:25:31.640,410,-0.2941635,-0.2374529,0.526799,-3.238044,5.6694403,3.169169
2026-05-10 11:25:31.650,411,-0.2941635,-0.2374529,0.526799,-3.4296648,5.782144825,3.246710525
2026-05-10 11:25:31.660,412,-0.41831708,-0.26879618,0.84126866,-3.5480579999999997,5.661193999999999,3.7791178
2026-05-10 11:25:31.670,413,-0.41831708,-0.26879618,0.84126866,-3.548058,5.661194,3.7791178
2026-05-10 11:25:31.680,414,-0.41831708,-0.26879618,0.84126866,-3.548058,5.661194,3.7791178
2026-05-10 11:25:31.690,415,-0.41831708,-0.26879618,0.84126866,-3.3967162,5.4485364999999994,4.044844250000001
2026-05-10 11:25:31.700,416,-0.41831708,-0.26879618,0.84126866,-3.2453744,5.235879,4.3105707
2026-05-10 11:25:31.710,417,-0.31074983,-0.257576,0.9648734,-3.0553951,5.063004,4.751768
2026-05-10 11:25:31.720,418,-0.31074983,-0.257576,0.9648734,-3.0553951,5.063004,4.751768
2026-05-10 11:25:31.730,419,0.02780650500000001,-0.23156838500000002,0.88767375,-3.38358255,5.336137000000001,5.0518555
2026-05-10 11:25:31.740,420,0.36636284,-0.20556077,0.8104741,-3.71177,5.60927,5.351943
2026-05-10 11:25:31.750,421,0.36636284,-0.20556077000000003,0.8104741,-3.71177,5.6092699999999995,5.351943000000001
2026-05-10 11:25:31.760,422,0.9735781350000001,-0.279315085,1.0152269250000001,-4.8226285,5.818186,6.073260425
2026-05-10 11:25:31.770,423,1.8055931,-0.24861206,1.3657504,-5.338046,5.15555,6.4696736
2026-05-10 11:25:31.780,424,2.1619554,-0.112445585,1.4819157,-4.980995,4.696027,6.0148845
2026-05-10 11:25:31.790,425,2.13963705,-0.004192316749999998,1.460603475,-4.980995,4.696027,6.0148845
2026-05-10 11:25:31.800,426,2.1321976,0.031892106,1.4534994,-4.980995,4.696027,6.0148845
2026-05-10 11:25:31.810,427,1.79150695,0.046069762,1.2739767,-4.28437965,4.3371434,5.2856641
2026-05-10 11:25:31.820,428,1.5264915,0.13964228,0.64412296,-3.4631479000000005,3.7669005,4.4515276
2026-05-10 11:25:31.830,429,1.5264915,0.13964228,0.64412296,-3.47819045,3.75277425,4.434958
2026-05-10 11:25:31.840,430,1.5264915,0.13964228,0.64412296,-3.493233,3.738648,4.4183884
2026-05-10 11:25:31.850,431,1.4258149,0.19909698,0.26708874,-4.093204366666666,3.5895969,4.2642975000000005
2026-05-10 11:25:31.860,432,1.1497012,0.17476629,0.0049393126,-4.8081203,3.4567337,4.1911464
2026-05-10 11:25:31.870,433,1.1497012,0.17476629,0.0049393126,-4.8081203,3.4567336999999996,4.1911464
2026-05-10 11:25:31.880,434,1.1497012,0.17476629,0.0049393126,-4.8081203,3.4567337,4.1911464
2026-05-10 11:25:31.890,435,0.8858138799999999,0.1053415095,-0.12773610935000002,-5.463044075,3.263394875,4.3701681
2026-05-10 11:25:31.900,436,0.5833877,-0.31709167,0.04177073,-6.7642636,2.6876543,4.8704286
2026-05-10 11:25:31.910,437,0.5833877,-0.31709167,0.04177073,-6.7642636,2.6876543,4.8704286
2026-05-10 11:25:31.920,438,0.5833877,-0.31709167,0.04177073,-6.7642636,2.6876543,4.8704286
2026-05-10 11:25:31.930,439,0.5833877,-0.31709167,0.04177073,-6.7642636,2.6876543,4.8704286
2026-05-10 11:25:31.940,440,0.5833877,-0.31709167,0.04177073,-6.7642636,2.6876543,4.8704286
2026-05-10 11:25:31.950,441,0.5833877,-0.31709167,0.04177073,-7.0093734,2.5452718333333335,4.989190933333334
2026-05-10 11:25:31.960,442,0.5833877,-0.31709167,0.04177073,-7.499593,2.2605069,5.2267156
2026-05-10 11:25:31.970,443,0.5833877,-0.31709167,0.04177073,-7.499593,2.2605069,5.2267156
2026-05-10 11:25:31.980,444,0.5833877,-0.31709167,0.04177073,-8.116159000000001,2.0392718333333337,5.551492533333334
2026-05-10 11:25:31.990,445,0.90151596,-0.49502888,0.3059325,-8.424442,1.9286543,5.713881
2026-05-10 11:25:32.000,446,0.90151596,-0.49502888,0.3059325,-8.424442,1.9286543,5.713881
2026-05-10 11:25:32.010,447,0.90151596,-0.49502888,0.3059325,-8.424442,1.9286543,5.713881
2026-05-10 11:25:32.020,448,0.9015159599999999,-0.49502888,0.3059325,-8.424442,1.9286543,5.713881
2026-05-10 11:25:32.030,449,1.06644937,-0.4891748775,0.516203925,-8.640459250000001,1.9859611,5.64531135
2026-05-10 11:25:32.040,450,1.5612496,-0.47161287,1.1470182,-9.288511,2.1578815,5.4396024
2026-05-10 11:25:32.050,451,1.5612496,-0.47161287,1.1470182,-9.179217,2.2408064333333333,5.283068266666667
2026-05-10 11:25:32.060,452,1.43275125,-0.4344460725,1.3712995749999999,-8.960629,2.4066563,4.97
2026-05-10 11:25:32.070,453,1.0472562,-0.32294568,2.0441437,-8.190176,2.413834,4.829195
2026-05-10 11:25:32.080,454,1.0316658666666667,-0.28682568,2.098699733333333,-7.199250666666667,2.0094412,4.8475209999999995
2026-05-10 11:25:32.090,455,1.101786875,-0.1343675955,2.2197483499999997,-6.703788,1.8072448,4.856684
2026-05-10 11:25:32.100,456,1.1355541,-0.107628234,2.2237272,-5.955325200000001,1.3516157,4.86470165
2026-05-10 11:25:32.110,457,1.1355541,-0.107628234,2.2237272,-4.1734312000000005,0.36361754,4.85614965
2026-05-10 11:25:32.120,458,1.1355541,-0.107628234,2.2237272,-3.14,-0.16875151999999996,4.83958
2026-05-10 11:25:32.130,459,1.1355541,-0.107628234,2.2237272,-3.14,-0.16875152,4.83958
2026-05-10 11:25:32.140,460,1.292285725,-0.013872762,2.004796725,-3.14,-0.16875152,4.83958
2026-05-10 11:25:32.150,461,1.3445296000000002,0.017379062,1.9318199,-3.14,-0.16875151999999996,4.83958
2026-05-10 11:25:32.160,462,1.4177961,0.078693616,1.66863385,-2.765616,-0.261144895,4.8403434999999995
2026-05-10 11:25:32.170,463,1.4910626,0.14000817,1.4054478,-2.391232,-0.35353827,4.841107
2026-05-10 11:25:32.180,464,1.8989725666666668,0.4762473,0.8316135833333332,-2.7018570333333334,0.28410324000000003,5.1280101
2026-05-10 11:25:32.190,465,1.9562117,0.50624907,0.83139,-2.7994428,0.3417791,5.152801
2026-05-10 11:25:32.200,466,1.9562117,0.50624907,0.83139,-3.26034045,0.494457245,5.21396395
2026-05-10 11:25:32.210,467,2.1044521,0.6100051099999999,0.854653525,-3.67527065,0.56535578,5.2466453
2026-05-10 11:25:32.220,468,3.4173945666666667,1.2098063833333332,1.59275555,-4.0191371,0.1444187166666667,5.0512448
2026-05-10 11:25:32.230,469,3.9997456,1.457829,1.9501748,-3.1479414,-0.6087272,3.7140608
2026-05-10 11:25:32.240,470,3.9997456,1.457829,1.9501748,-3.1479414,-0.6087272,3.7140608
2026-05-10 11:25:32.250,471,3.9997456,1.457829,1.9501748,-1.9442314,-0.788627,2.3726006
2026-05-10 11:25:32.260,472,3.60953985,1.6692437500000001,1.8311129,-1.539533175,-0.8136725,2.039908125
2026-05-10 11:25:32.270,473,3.121056,1.8977530333333335,1.5749088999999998,-0.8950703,-0.8762862,1.5231924999999997
2026-05-10 11:25:32.280,474,2.9244998,1.9319421,1.3006247,-0.8950703,-0.8762862,1.5231925
2026-05-10 11:25:32.290,475,2.9244998,1.9319421,1.3006247,-0.8950703,-0.8762862,1.5231925
2026-05-10 11:25:32.300,476,2.9244998,1.9319420999999999,1.3006247,-0.8950703,-0.8762862,1.5231924999999997
2026-05-10 11:25:32.310,477,2.9968059499999997,1.8031083,0.9281181949999999,-1.132162375,-0.650342415,1.23371875
2026-05-10 11:25:32.320,478,3.020908,1.7601637,0.80394936,-1.3426818,-0.46043968,1.0604621
2026-05-10 11:25:32.330,479,3.020908,1.7601637000000003,0.80394936,-1.3426818,-0.4604396800000001,1.0604621
2026-05-10 11:25:32.340,480,3.020908,1.7601637,0.80394936,-1.3426818,-0.46043968,1.0604621
2026-05-10 11:25:32.350,481,2.7863822,1.85023,1.1332978,-2.0205896,0.17256944,1.0082331
2026-05-10 11:25:32.360,482,2.7863822,1.85023,1.1332978,-1.916360675,0.22182044,1.2988140000000001
2026-05-10 11:25:32.370,483,3.1917716666666665,2.8824851333333332,1.5908042,-1.5036957,-0.13327044,1.8577938333333333
2026-05-10 11:25:32.380,484,5.241067825,2.66387485,1.713346875,-0.07399104499999998,-0.7599927200000001,-1.74402026
2026-05-10 11:25:32.390,485,3.0667033,1.7973,1.2443409,0.6180429199999999,-0.095753133,-3.6041048499999997
2026-05-10 11:25:32.400,486,2.9990164333333333,1.7067458999999998,1.2016351333333335,0.6731735,0.10965031399999998,-3.7352881
2026-05-10 11:25:32.410,487,2.9504618000000002,1.409990775,1.16676015,0.5444336425,0.159817622,-3.6264396000000003
2026-05-10 11:25:32.420,488,3.0722525,1.2575734,1.291112,0.31520647,0.19792034,-3.475976
2026-05-10 11:25:32.430,489,3.0177371333333327,1.224604,1.3831498666666668,0.3618867466666667,0.0496328,-3.7201693999999996
2026-05-10 11:25:32.440,490,2.8693748,1.11692495,1.5995750499999999,1.2098186,-0.4289037625,-4.1190644
2026-05-10 11:25:32.450,491,2.75138,0.9917042,1.6966234,1.5607607,-0.63346726,-4.2281036
2026-05-10 11:25:32.460,492,2.7135729,0.92593815,1.69921495,1.8310686,-0.82298818,-4.3416483
2026-05-10 11:25:32.470,493,2.6757658,0.8601721000000001,1.7018065,2.1013765,-1.0125091,-4.455193
2026-05-10 11:25:32.480,494,2.4107504000000004,0.7311402,1.6517122,2.5034785,-1.0778717,-4.6661705
2026-05-10 11:25:32.490,495,2.145735,0.6021083,1.6016179,2.9055805,-1.1432343,-4.877148
2026-05-10 11:25:32.500,496,2.01205335,0.566343995,1.649181625,2.9055805,-1.1432343,-4.877148
2026-05-10 11:25:32.510,497,1.8256552333333333,0.5149487266666667,1.6741017333333332,3.3690236000000002,-1.0112364999999999,-4.926831666666666
2026-05-10 11:25:32.520,498,1.5419801,0.43600106,1.6922328,3.905567,-1.0319041,-4.867069
2026-05-10 11:25:32.530,499,1.482007175,0.3904038825,1.633326925,4.58385625,-1.29514885,-4.8393127499999995
2026-05-10 11:25:32.540,500,1.4627073,0.3678873200000001,1.5958247000000003,4.964196,-1.4440855,-4.839122
2026-05-10 11:25:32.550,501,1.4627073,0.36788732,1.5958247,4.964196,-1.4440855,-4.839122
2026-05-10 11:25:32.560,502,1.475192775,0.299331485,1.4379496999999999,5.5660515,-1.6384933,-4.997641
2026-05-10 11:25:32.570,503,1.4793546,0.27647954,1.3853247,5.5660515,-1.6384932999999997,-4.997641
2026-05-10 11:25:32.580,504,1.5297996,0.215332685,1.265226225,5.801043625,-1.670029275,-5.16223115
2026-05-10 11:25:32.590,505,1.5466146,0.1949504,1.2251934,5.955631,-1.726458,-5.3692
2026-05-10 11:25:32.600,506,1.6009267333333332,0.082098286,1.1092517333333334,5.9673392000000005,-1.8033251666666665,-5.501452333333333
2026-05-10 11:25:32.610,507,1.5748785,-0.0698821255,0.96975175,5.9907556,-1.9570595,-5.765957
2026-05-10 11:25:32.620,508,1.5216742,-0.16543648,0.8882226,5.9907556,-1.9570595,-5.765957
2026-05-10 11:25:32.630,509,1.4716406499999999,-0.2094329425,0.8444547450000001,5.9907556,-1.9570595,-5.765957
2026-05-10 11:25:32.640,510,1.4549628,-0.22409843,0.82986546,5.9907556,-1.9570595,-5.765957
2026-05-10 11:25:32.650,511,1.4549628,-0.22409843,0.82986546,5.945704,-2.0399845,-5.859572
2026-05-10 11:25:32.660,512,1.32129655,-0.2211562,0.610858815,4.7663524,-2.02039865,-5.86384815
2026-05-10 11:25:32.670,513,1.252695,-0.21470766,0.5257624,4.3412666,-1.9117027999999998,-5.8218513
2026-05-10 11:25:32.680,514,1.252695,-0.21470766,0.5257624,4.158350625,-1.828816025,-5.793484225
2026-05-10 11:25:32.690,515,1.1897036,-0.22269592,0.5371655,3.6096027,-1.5801557,-5.708383
2026-05-10 11:25:32.700,516,1.2702368,-0.19029566,0.7427059666666667,3.1447342,-1.4105388,-5.6162441
2026-05-10 11:25:32.710,517,1.3105034,-0.17409553,0.8454762,2.7942502,-1.3494014,-5.5591793
2026-05-10 11:25:32.720,518,1.3105034,-0.17409553,0.8454762,2.7942502,-1.3494014,-5.5591793
2026-05-10 11:25:32.730,519,1.3501397666666666,-0.09563566266666668,1.1398836333333333,2.8986574,-1.7273233000000001,-5.705583266666667
2026-05-10 11:25:32.740,520,1.3399562,-0.073540874,1.179825,2.9882,-1.8101465,-5.7033434
2026-05-10 11:25:32.750,521,1.3399562,-0.073540874,1.179825,2.9882,-1.8101465,-5.7033434
2026-05-10 11:25:32.760,522,1.3399562000000003,-0.073540874,1.179825,2.9882000000000004,-1.8101465,-5.703343399999999
2026-05-10 11:25:32.770,523,1.4188633,-0.02786748,1.217754,3.1215215,-1.6151277,-5.6833377
2026-05-10 11:25:32.780,524,1.4188633,-0.02786748,1.217754,3.1215215,-1.6151277,-5.6833377
2026-05-10 11:25:32.790,525,1.4188633,-0.02786748,1.217754,3.1215215,-1.6151276999999997,-5.6833377
2026-05-10 11:25:32.800,526,1.4555727,-0.005793021,1.1609824,3.1215215,-1.6151277,-5.6833377
2026-05-10 11:25:32.810,527,1.42278115,0.004314275750000001,1.1460425,3.1169782,-1.5972599,-5.649854525
2026-05-10 11:25:32.820,528,1.3244065,0.034636166,1.1012228,3.1033483,-1.5436565,-5.549405
2026-05-10 11:25:32.830,529,1.3244065,0.034636166,1.1012228,3.1053336,-1.5964454333333336,-5.4725888000000005
2026-05-10 11:25:32.840,530,1.34109955,0.0526402645,1.111680725,3.132020725,-1.751847,-5.2932619
2026-05-10 11:25:32.850,531,1.3911787,0.10665256,1.1430545,3.2001703,-1.9013181,-5.2161784
2026-05-10 11:25:32.860,532,1.4909406,0.09372498,1.15192695,3.240449225,-1.948431075,-5.21824005
2026-05-10 11:25:32.870,533,1.5907025,0.0807974,1.1607994,3.361286,-2.08977,-5.224425
2026-05-10 11:25:32.880,534,1.5907025,0.0807974,1.1607994,3.361286,-2.08977,-5.224425
2026-05-10 11:25:32.890,535,1.66944185,0.062259732375,1.1411031249999999,3.436995075,-2.16540275,-5.32395775
2026-05-10 11:25:32.900,536,1.9056599,0.0066467295,1.0820143,3.6641223,-2.392301,-5.622556
2026-05-10 11:25:32.910,537,1.9056599,0.0066467295,1.0820143,3.6641223,-2.392301,-5.622556
2026-05-10 11:25:32.920,538,1.9056599,0.0066467295,1.0820143,3.6641223,-2.392301,-5.622556
2026-05-10 11:25:32.930,539,1.9056599,0.0066467295,1.0820143,3.6641223,-2.392301,-5.622556
2026-05-10 11:25:32.940,540,1.9056599,0.0066467295,1.0820143,3.6641223,-2.392301,-5.622556
2026-05-10 11:25:32.950,541,1.9265758,-0.1733028,0.93798155,3.9318341999999995,-2.6984973,-6.4418793
2026-05-10 11:25:32.960,542,1.9265758,-0.1733028,0.93798155,3.9318342,-2.6984973,-6.4418793
2026-05-10 11:25:32.970,543,1.6437697249999998,-0.43110747,0.6994005725,3.9248855750000002,-2.793028675,-6.755749575
2026-05-10 11:25:32.980,544,1.0586797,-0.7575645266666666,0.40421056666666666,3.8460076,-2.9132164,-7.193701700000001
2026-05-10 11:25:32.990,545,0.8357805,-0.8351707,0.31550622,3.697796425,-2.863850875,-7.103102675000001
2026-05-10 11:25:33.000,546,0.4860039666666667,-0.9056219666666667,0.21395558,2.9620347333333332,-3.0508136666666665,-5.954408766666667
2026-05-10 11:25:33.010,547,0.3111157,-0.9408476,0.16318026,2.8507555,-3.1444287,-5.7063975
2026-05-10 11:25:33.020,548,0.07843444925,-0.9967502250000001,0.09197183065,2.777451675,-3.18890735,-5.543029274999999
2026-05-10 11:25:33.030,549,-0.053966567,-1.0311577,0.0027440626,2.5575402,-3.3223433,-5.0529246
2026-05-10 11:25:33.040,550,-0.033538544,-1.04951245,-0.0700040837,2.5575402,-3.3223433,-5.0529246
2026-05-10 11:25:33.050,551,-0.013110521,-1.0678672,-0.14275223,2.27119705,-3.221016,-4.6843438
2026-05-10 11:25:33.060,552,-0.0108238025,-1.10532355,-0.17353145749999999,1.389413,-2.5804474,-3.869526
2026-05-10 11:25:33.070,553,-0.010061563,-1.117809,-0.18379120000000002,1.389413,-2.5804474,-3.869526
2026-05-10 11:25:33.080,554,-0.13642564075000002,-1.237313025,-0.11304012999999999,1.19737225,-2.3075052,-3.720818475
2026-05-10 11:25:33.090,555,-0.449218275,-1.61157275,-0.074150667,0.8381071325,-1.8848248,-2.708385625
2026-05-10 11:25:33.100,556,-0.5057612,-1.7128439,-0.077809416,0.9819659,-2.133447,-2.6418395
2026-05-10 11:25:33.110,557,-0.7068095375000001,-1.909684625,-0.1353432615,1.22585385,-2.1552854,-2.7433195
2026-05-10 11:25:33.120,558,-0.77382565,-1.9752982,-0.15452121,1.5640441,-2.1845305,-2.84014165
2026-05-10 11:25:33.130,559,-0.8755795333333335,-2.0307079333333333,-0.17844536666666666,1.6583464,-2.1919372,-2.8354838
2026-05-10 11:25:33.140,560,-1.6146674,-2.400902325,-0.3070301025,1.4025466,-1.59031131,-2.11092128
2026-05-10 11:25:33.150,561,-2.34778955,-2.58258975,-0.225500965,0.45707993999999996,0.67073008,0.45540003999999995
2026-05-10 11:25:33.160,562,-1.930737625,-2.27462975,-0.116759865,0.247553145,1.7073683,2.152269275
2026-05-10 11:25:33.170,563,-1.6170455,-2.1490889,-0.10531103000000001,0.23457226,1.7993035,2.293341
2026-05-10 11:25:33.180,564,-1.020364375,-1.7920862,-0.15696037,0.19624045,2.0328069,2.4080307
2026-05-10 11:25:33.190,565,-0.92913955,-1.6929036,-0.17433943,0.19624045,2.0328069,2.4080307
2026-05-10 11:25:33.200,566,-0.92913955,-1.6929036,-0.17433943,0.04260785,2.340683,2.4211645
2026-05-10 11:25:33.210,567,-0.5497882,-1.3950814,-0.11360419,-0.46944994,2.573117,2.7299569
2026-05-10 11:25:33.220,568,-0.424110125,-1.3037651000000001,-0.038386384999999995,-0.60895627,2.6282476,2.8385382
2026-05-10 11:25:33.230,569,-0.038315245000000005,-1.0612814333333334,0.4920409233333333,-1.0487029333333333,3.3109406,3.0984103666666667
2026-05-10 11:25:33.240,570,0.042746395,-0.9713372,0.8012663,-1.17641195,3.74303875,3.1797826750000002
2026-05-10 11:25:33.250,571,0.042746395,-0.9713372,0.8012663,-1.1091785,4.0979896,3.1969633
2026-05-10 11:25:33.260,572,-0.00745470375,-0.9499335,0.7648465,-1.1091785,4.0979896,3.1969633
2026-05-10 11:25:33.270,573,-0.158058,-0.8857224,0.6555871,-0.9767734999999999,4.774981,3.545309
2026-05-10 11:25:33.280,574,0.0727024125,-0.6142889025,0.4323118225,-1.2915218,4.555222,4.0700426
2026-05-10 11:25:33.290,575,0.12445848,-0.56271577,0.40734085,-1.409227925,4.527924,4.081343524999999
2026-05-10 11:25:33.300,576,0.13330045999999998,-0.49590292666666663,0.3668303466666667,-1.7623463,4.44603,4.1152463
2026-05-10 11:25:33.310,577,0.15098442,-0.36227724,0.28580934,-1.7623463,4.44603,4.1152463
2026-05-10 11:25:33.320,578,0.099426534,-0.27733326,0.309179625,-2.825480825,4.592866725,4.455078275
2026-05-10 11:25:33.330,579,0.08935479866666667,-0.16047683333333332,0.6113364666666666,-3.7195585333333336,4.771417633333333,5.0681452
2026-05-10 11:25:33.340,580,0.12506826,-0.14616705,0.69089395,-3.9894083,4.8362203,5.31804
2026-05-10 11:25:33.350,581,0.2546032625,-0.1275836525,0.7456227625,-4.2746823,4.936172975,5.60942285
2026-05-10 11:25:33.360,582,0.64320827,-0.07183346,0.9098092,-4.786129,5.1341696,6.0994897
2026-05-10 11:25:33.370,583,0.64320827,-0.07183346,0.9098092000000001,-4.786129,5.1341696,6.0994897
2026-05-10 11:25:33.380,584,0.739037035,-0.07131514,0.9437746,-5.3559136,5.4530416,6.443254
2026-05-10 11:25:33.390,585,0.8348658,-0.07079682,0.97774,-5.3559136,5.4530416,6.443254
2026-05-10 11:25:33.400,586,1.6686338,0.016708292,1.2369014,-5.8659863,5.6401186,6.656293000000001
2026-05-10 11:25:33.410,587,1.6686338,0.016708292,1.2369014,-6.141104825,5.48205745,6.492275875
2026-05-10 11:25:33.420,588,1.6686338,0.016708292,1.2369014,-6.232811,5.4293704,6.4376035
2026-05-10 11:25:33.430,589,1.8585636,0.019675945333333333,1.4006102,-6.232811000000001,5.4293704,6.437603499999999
2026-05-10 11:25:33.440,590,1.9535285,0.021159772,1.4824646,-6.232811,5.4293704,6.4376035
2026-05-10 11:25:33.450,591,1.567942175,0.08669713,1.7880312,-3.99979295,3.375794075,4.728478825
2026-05-10 11:25:33.460,592,1.1284195000000001,0.21178065000000001,1.3134302999999998,-3.0659328,2.7343855,5.030475
2026-05-10 11:25:33.470,593,1.1170164,0.2300744,1.0717089,-3.0659328,2.7343855,5.030475
2026-05-10 11:25:33.480,594,1.1170164,0.2300744,1.0717089,-3.23602055,2.836094575,5.09045435
2026-05-10 11:25:33.490,595,1.1382370499999999,0.23734617500000002,0.7592515875,-3.7462838,3.1412218,5.2703924
2026-05-10 11:25:33.500,596,1.1455545666666667,0.22023643666666667,0.6183693766666667,-4.295299,3.5231651999999998,5.347667
2026-05-10 11:25:33.510,597,1.1711659,0.1528747775,0.5560080475,-4.5503734,3.6131914750000003,5.34472725
2026-05-10 11:25:33.520,598,1.5657011,0.09061504,0.99274087,-5.755381475,3.90808665,4.810678525
2026-05-10 11:25:33.530,599,1.5657011,0.09061504,0.99274087,-5.8585033,3.9898663,5.0034447
2026-05-10 11:25:33.540,600,1.4265467,0.10614440666666668,1.0961208233333333,-5.742184300000001,3.831194033333334,4.544074
2026-05-10 11:25:33.550,601,1.2227543,0.1794617,1.0393594,-5.0211596499999995,2.90107535,3.2555300000000003
2026-05-10 11:25:33.560,602,1.0343287,0.28379703,0.73754305,-4.427131125,1.666173175,2.805895025
2026-05-10 11:25:33.570,603,1.0234947333333333,0.27704868,0.7084153333333333,-4.5953865,1.6497943,2.8490756000000004
2026-05-10 11:25:33.580,604,0.9917042,0.2126496,0.756278915,-5.1245484,2.008525,3.0552425
2026-05-10 11:25:33.590,605,1.006888,0.2066584,0.7863874,-5.2186217,2.0921753250000004,3.0819296499999997
2026-05-10 11:25:33.600,606,1.006888,0.2066584,0.7863874,-5.5008416,2.3431263,3.1619911
2026-05-10 11:25:33.610,607,1.006888,0.2066584,0.7863874,-5.6272908,2.3968824,3.10166825
2026-05-10 11:25:33.620,608,1.006888,0.2066584,0.7863874000000001,-5.75374,2.4506385,3.0413453999999995
2026-05-10 11:25:33.630,609,1.006888,0.2066584,0.7863874,-5.75374,2.4506385,3.0413454
2026-05-10 11:25:33.640,610,1.3856906,0.2403189,0.94816506,-5.75374,2.4506385,3.0413454
2026-05-10 11:25:33.650,611,1.5264305333333335,0.24363210999999999,1.2993034333333333,-5.6958604,2.3864977,2.7291931999999997
2026-05-10 11:25:33.660,612,1.4129788,0.2868917475,1.3775498499999999,-4.78299835,2.359696,2.1783836
2026-05-10 11:25:33.670,613,1.1845813,0.38819337,1.3659334,-4.478711,2.3507621,1.9947804
2026-05-10 11:25:33.680,614,1.1845813,0.38819337,1.3659334,-4.478711,2.3507621,1.9947804
2026-05-10 11:25:33.690,615,1.165723475,0.43668705249999995,1.335687725,-4.33401235,2.297502325,2.044336875
2026-05-10 11:25:33.700,616,1.4157534,0.73504287,0.907248,-3.5742488999999997,1.8070157999999998,2.3948207999999997
2026-05-10 11:25:33.710,617,1.4157534,0.73504287,0.907248,-3.2485814,1.4763086,2.5966353
2026-05-10 11:25:33.720,618,1.7824818999999998,0.84370774,0.5496662,-3.2095369333333337,1.2715669166666668,2.655583866666667
2026-05-10 11:25:33.730,619,1.7824819,0.84370774,0.5496662,-3.131448,0.86208355,2.773481
2026-05-10 11:25:33.740,620,1.92462445,0.8984975500000001,0.481156115,-3.2252158,0.50243665,2.888629
2026-05-10 11:25:33.750,621,2.066767,0.95328736,0.41264603000000005,-3.7302487,-0.2012801,3.1062498
2026-05-10 11:25:33.760,622,2.3900175,1.1120161,0.5031391,-3.7302487,-0.2012801,3.1062498
2026-05-10 11:25:33.770,623,2.5960052,1.2496461,0.6504038,-4.1331143,-0.15057829,3.135724
2026-05-10 11:25:33.780,624,2.6601705,1.312851,0.746385025,-4.421060825,0.044020475,3.07135405
2026-05-10 11:25:33.790,625,2.9815764666666666,1.5980404333333331,1.2463735666666667,-4.5369980666666665,0.16539177,2.982091333333333
2026-05-10 11:25:33.800,626,3.7182658,2.092256,2.4166656,-2.5592198,-0.16707164,2.0086777
2026-05-10 11:25:33.810,627,3.95090115,2.15808315,2.5638388,-1.9066631,-0.43157627,1.7463874
2026-05-10 11:25:33.820,628,4.245654166666667,2.228544766666667,2.7119063333333333,-1.2541064,-0.6960809,1.4840971000000003
2026-05-10 11:25:33.830,629,4.276713,2.230862,2.7123535,-0.36354119999999995,-1.061302,1.076268185
2026-05-10 11:25:33.840,630,4.1825002,2.2269593,2.5889316,1.12635915,-1.68064305,0.43386703000000004
2026-05-10 11:25:33.850,631,4.0202956,2.2224264333333337,2.3491004666666666,1.7256943,-1.934763,0.19929479000000003
2026-05-10 11:25:33.860,632,4.037476625,2.2841424,1.694611075,2.6020951,-1.853937825,-0.41512112749999996
2026-05-10 11:25:33.870,633,4.071060624999999,2.375611175,0.8483269375,1.851799875,-0.8552495,-1.4940619
2026-05-10 11:25:33.880,634,3.9471814,2.3732888666666665,0.6073524966666667,1.0518081733333333,-0.5234606,-2.0053179
2026-05-10 11:25:33.890,635,3.76040225,2.3081072000000002,0.6845368775,0.532712685,-0.3954588825,-2.334612425
2026-05-10 11:25:33.900,636,3.1734473000000003,2.06800175,1.1916854,-0.3196734225,-0.46956450000000005,-3.27599405
2026-05-10 11:25:33.910,637,2.9410253,1.9454184,1.5392361,-0.37491855,-0.52626044,-3.4413095
2026-05-10 11:25:33.920,638,2.9410253,1.9454184,1.5392361,-0.37491855,-0.52626044,-3.4413095000000005
2026-05-10 11:25:33.930,639,2.83254335,1.745330475,1.81579185,-0.08811731325000001,-0.7002424625000001,-3.7047449749999997
2026-05-10 11:25:33.940,640,2.7963827,1.6786345,1.9079771,0.34823137974999996,-0.9347383425,-4.072485675
2026-05-10 11:25:33.950,641,2.7963827,1.6786345,1.9079771,0.46181414,-0.9935723,-4.1657953
2026-05-10 11:25:33.960,642,2.7963827,1.6786345,1.9079771,0.612316055,-1.048321125,-4.262235725
2026-05-10 11:25:33.970,643,2.470205,1.4261808,2.0705476,1.0638218,-1.2125676,-4.551557
2026-05-10 11:25:33.980,644,1.8862686666666668,1.0005867933333332,2.2290528000000003,2.5377379,-1.0455467733333332,-4.6754098
2026-05-10 11:25:33.990,645,1.595001675,0.75388543,2.2374781749999997,3.601699725,-0.9767353525,-4.641163375
2026-05-10 11:25:34.000,646,1.3038566,0.51106644,2.1092083,4.36608305,-1.215698225,-4.59691385
2026-05-10 11:25:34.010,647,1.3038566,0.51106644,2.1092083,4.9576297,-1.4422529,-4.56072
2026-05-10 11:25:34.020,648,1.3038566,0.51106644,2.1092083,4.9576297,-1.4422529,-4.56072
2026-05-10 11:25:34.030,649,1.2916607,0.38587618,1.9038916,5.6183949250000005,-1.7736090500000001,-4.487530725
2026-05-10 11:25:34.040,650,1.37707725,0.31931741625,1.807285325,6.239072,-2.034448475,-4.499328025
2026-05-10 11:25:34.050,651,1.4940302666666667,-0.13551604333333334,1.0324382666666667,7.121874099999999,-2.4521658333333334,-5.725995999999999
2026-05-10 11:25:34.060,652,1.3226076249999998,-0.16654935,0.76655385,6.1056745,-2.3966534,-5.8615575
2026-05-10 11:25:34.070,653,1.304466325,-0.1182995875,0.751385275,5.5956783,-2.3312144,-5.8018456
2026-05-10 11:25:34.080,654,1.3117229,0.0071955416,0.8912105599999999,4.81148,-2.3254113,-5.656001
2026-05-10 11:25:34.090,655,1.31981785,0.0200773902,0.926822395,4.6404376,-2.3935227,-5.6257634
2026-05-10 11:25:34.100,656,1.4209365,0.06536966599999999,1.18083115,4.10432715,-2.410588775,-5.526803375
2026-05-10 11:25:34.110,657,1.6692438,-0.02695279,1.6345465,3.84952,-2.4216225,-5.5058813
2026-05-10 11:25:34.120,658,1.7979708,-0.15531394,2.122075,4.6415067,-2.6650524,-5.777411
2026-05-10 11:25:34.130,659,1.61649675,-0.3357665525,2.028822625,6.202191174999999,-3.4219907000000003,-6.137439575
2026-05-10 11:25:34.140,660,1.3792878,-0.37160707,1.7400407,7.547393,-4.1152463,-6.434091
2026-05-10 11:25:34.150,661,1.3792878,-0.37160707,1.7400407,7.547393,-4.1152463,-6.434091
2026-05-10 11:25:34.160,662,1.3792878,-0.37160707,1.7400407,7.547393,-4.1152463,-6.434091
2026-05-10 11:25:34.170,663,1.3792878,-0.37160707,1.7400407,7.547393,-4.1152463,-6.434091
2026-05-10 11:25:34.180,664,1.3792878,-0.37160707,1.7400407,7.6140791000000005,-4.2989132,-6.397795466666666
2026-05-10 11:25:34.190,665,1.3717060666666665,-0.3567078133333333,1.6383070666666668,7.747451299999999,-4.666247,-6.3252044
2026-05-10 11:25:34.200,666,1.361070275,-0.3017553875,1.20854605,7.479815825,-4.899788375,-6.241439325
2026-05-10 11:25:34.210,667,1.3694701500000002,-0.2843458375,1.05379616,7.13231,-5.0121493,-6.1758475
2026-05-10 11:25:34.220,668,1.3901421,-0.2572711,0.81584024,7.13231,-5.0121493,-6.1758475
2026-05-10 11:25:34.230,669,1.3901421,-0.2572711,0.81584024,7.13231,-5.0121493,-6.1758475
2026-05-10 11:25:34.240,670,1.285136,-0.17659567,0.42032942,6.078223625,-4.895550324999999,-6.089142625
2026-05-10 11:25:34.250,671,1.285136,-0.17659567,0.42032942,5.726861500000001,-4.856684,-6.060241
2026-05-10 11:25:34.260,672,1.1393499999999999,-0.15709758000000001,0.3516516075,3.7722456,-4.3117924,-5.65875
2026-05-10 11:25:34.270,673,1.1281146,-0.15958248,0.3550207,3.7722456,-4.3117924,-5.65875
2026-05-10 11:25:34.280,674,1.05809525,-0.28891930499999996,0.3858914,3.01916325,-4.0570615750000005,-5.46506775
2026-05-10 11:25:34.290,675,1.0178642,-0.3823394,0.39288875,2.7681358,-3.9721513,-5.400507
2026-05-10 11:25:34.300,676,0.99280177,-0.47088114999999997,0.486522275,1.9998964175,-3.5952856,-5.22789935
2026-05-10 11:25:34.310,677,0.90343686,-0.642064875,0.7162613,0.85803658,-2.96590345,-4.969885125
2026-05-10 11:25:34.320,678,0.5653582,-0.9263345333333333,1.1653932,1.3289373,-2.832124,-4.547281
2026-05-10 11:25:34.330,679,-0.05381412000000001,-1.427598575,1.1006587099999998,2.073811075,-2.77741335,-4.053320025
2026-05-10 11:25:34.340,680,-0.44191605,-1.8056542,0.62717074,3.240029225,-2.717701325,-3.15973865
2026-05-10 11:25:34.350,681,-0.7198184166666667,-1.9543214000000002,0.39683208666666664,3.4262412999999996,-2.7503697666666667,-2.714430566666666
2026-05-10 11:25:34.360,682,-1.09603955,-2.13866135,0.04649660500000001,3.3537265,-2.6452755249999997,-2.2072088499999998
2026-05-10 11:25:34.370,683,-1.3078202,-2.2937922,-0.4364889,2.826702525,-2.347746075,-1.313513025
2026-05-10 11:25:34.380,684,-1.202295775,-2.270803125,-0.34387677625,0.6497315834999999,-0.9681450775,-0.08387944500000001
2026-05-10 11:25:34.390,685,-1.0520736,-2.2210443,-0.072565205,-1.4396057333333332,0.8481863966666666,0.4694499333333333
2026-05-10 11:25:34.400,686,-1.0520736,-2.2210443,-0.072565205,-1.7557794,1.1618657,0.50701815
2026-05-10 11:25:34.410,687,-1.0520736,-2.2210443,-0.072565205,-2.081676,1.7116444,0.39461896
2026-05-10 11:25:34.420,688,-1.3005027,-2.1822208333333335,0.17320114933333333,-2.060499333333333,1.7793486333333333,0.41477750666666663
2026-05-10 11:25:34.430,689,-1.7280887,-2.1060374,0.6290611,-1.4171309625,1.7910187499999999,0.803402325
2026-05-10 11:25:34.440,690,-1.574787,-2.0071905,0.5778386,0.07895433,1.534799,1.6267341
2026-05-10 11:25:34.450,691,-1.5138078333333331,-1.9719851333333336,0.5077328799999999,0.20657426666666667,1.6303994,1.7352645000000002
2026-05-10 11:25:34.460,692,-1.3918495,-1.9015744,0.36752144,0.46181414,1.8216002,1.9523253
2026-05-10 11:25:34.470,693,-1.0626838699999999,-1.664091,-0.02850776,0.30642528,2.462703225,2.4517459
2026-05-10 11:25:34.480,694,-0.9047478400000001,-1.5707015,-0.18171792,-0.18835011666666665,3.092098066666667,2.9036969999999998
2026-05-10 11:25:34.490,695,-0.59116251275,-1.3674121399999999,-0.2603810475,-0.7404832275,3.5224017,2.99957735
2026-05-10 11:25:34.500,696,0.0689674395,-0.84282353,-0.22699495,-2.1960607,4.705495,3.1025846
2026-05-10 11:25:34.510,697,0.13631893,-0.6816251,-0.0013720375000000062,-3.3413947999999998,5.758245,3.186464025
2026-05-10 11:25:34.520,698,0.14846394333333335,-0.5487108666666667,0.3541060333333334,-4.181830766666667,6.4052783333333325,3.3123150666666668
2026-05-10 11:25:34.530,699,0.0574881095,-0.46313677999999997,1.0144952,-3.258317075,5.345567375,3.625866975
2026-05-10 11:25:34.540,700,0.1195039225,-0.423103975,0.99546969,-2.6282477,4.9035683,3.8198931
2026-05-10 11:25:34.550,701,0.23052159000000003,-0.2977409466666667,0.70239872,-2.3981552333333336,4.767854366666667,3.914984433333333
2026-05-10 11:25:34.560,702,0.31254872,-0.20982931,0.544147625,-2.3955462,4.656320525,4.244673625
2026-05-10 11:25:34.570,703,0.412767975,-0.1281477235,0.49205616500000005,-2.5770876,4.668996,4.4341183
2026-05-10 11:25:34.580,704,0.5439342,-0.04591731400000001,0.56911856,-2.7704264999999997,4.716490666666666,4.5266134
2026-05-10 11:25:34.590,705,0.7300273500000001,-0.0042990317500000005,0.647049965,-3.4474944,4.89837575,4.8132363
2026-05-10 11:25:34.600,706,0.9351765000000001,0.0697296795,0.70976705,-3.98093245,5.1134005,4.93678385
2026-05-10 11:25:34.610,707,1.11537,0.20543882,0.71961516,-4.785671,5.548031,4.962822
2026-05-10 11:25:34.620,708,1.0968322666666668,0.30751795333333337,0.6990448533333332,-5.3777013333333334,5.6881227999999995,5.138853066666667
2026-05-10 11:25:34.630,709,1.529220375,0.46449354,0.8571841375,-6.5889454,5.786421,5.442809
2026-05-10 11:25:34.640,710,1.6665606,0.4797231,0.97719115,-7.001432,5.614004,5.3247595
2026-05-10 11:25:34.650,711,1.6665605999999997,0.4797231,0.97719115,-7.001432,5.614004,5.3247595
2026-05-10 11:25:34.660,712,1.5609447250000001,0.42525346750000004,1.4495815375,-6.887620175,4.58450535,4.982445975
2026-05-10 11:25:34.670,713,1.4900564250000001,0.2939500825,2.07539535,-6.44825535,3.8605155499999997,4.81835225
2026-05-10 11:25:34.680,714,1.592623425,0.361606465,2.019751925,-5.07865725,3.457764525,4.639063325
2026-05-10 11:25:34.690,715,1.8409611000000001,0.58405846,1.7171735000000001,-4.122882400000001,3.390658466666667,4.1023673333333335
2026-05-10 11:25:34.700,716,1.2944658,0.66613644,0.8413296,-4.5243735,3.723529,3.8854084
2026-05-10 11:25:34.710,717,1.195466125,0.50470934,0.7463088,-5.7878337,3.750712525,3.958292275
2026-05-10 11:25:34.720,718,1.1929964666666668,0.3012777466666667,0.8427118,-6.776531666666667,3.6543994333333334,3.9514328333333335
2026-05-10 11:25:34.730,719,1.2697234499999999,0.21136903499999998,1.04143275,-7.032891425,3.50396125,3.846771225
2026-05-10 11:25:34.740,720,1.353783275,0.30602396249999997,1.16849805,-6.418475725,2.9734248,3.173673975
2026-05-10 11:25:34.750,721,1.2973318,0.3448372,1.1491524,-5.777665466666666,2.686025366666667,2.7128016
2026-05-10 11:25:34.760,722,1.04362797,0.31337195,1.032194375,-5.3330064,2.5430319,2.6402359
2026-05-10 11:25:34.770,723,0.68464361,0.30294451499999997,0.8454914125,-4.724660849999999,2.0985511249999997,2.788409025
2026-05-10 11:25:34.780,724,0.66180694,0.3878275199999999,0.5849122,-4.362545,1.5321518,3.0538172333333335
2026-05-10 11:25:34.790,725,0.84364677,0.4411843,0.43337896,-4.384408949999999,1.243798,3.2910364999999997
2026-05-10 11:25:34.800,726,1.0254866,0.49454108,0.28184572,-4.5362854,1.1829406,3.4196236
2026-05-10 11:25:34.810,727,1.5464927,0.59591892,0.321695605,-5.56208065,1.7682258499999999,3.2137620499999997
2026-05-10 11:25:34.820,728,1.9126929333333333,0.7018499,0.5538941199999999,-6.1118593,2.0659463,3.0260737
2026-05-10 11:25:34.830,729,2.1230049500000003,0.8484641749999999,1.025501925,-6.4740261,2.2314908,2.095191525
2026-05-10 11:25:34.840,730,2.6472278,1.2365966,1.9368813,-5.125083350000001,1.6034449,1.22856459
2026-05-10 11:25:34.850,731,2.7192035333333333,1.2755216,1.9641999333333333,-4.526918733333333,1.1012372766666667,0.8150469533333333
2026-05-10 11:25:34.860,732,2.535026,1.59241,2.0678644,-4.0668354,0.71669763,0.46105054
2026-05-10 11:25:34.870,733,2.535026,1.59241,2.0678644,-4.0668354,0.71669763,0.46105054
2026-05-10 11:25:34.880,734,2.535026,1.59241,2.0678644,-4.0668354,0.71669763,0.46105054
2026-05-10 11:25:34.890,735,2.2737303,1.639181,2.1560404,-4.0668354,0.71669763,0.46105054
2026-05-10 11:25:34.900,736,2.2737303,1.639181,2.1560404,-3.878307075,0.786679905,0.49151745999999996
2026-05-10 11:25:34.910,737,2.2737303,1.639181,2.1560404,-3.7260489249999997,0.8875872225,0.5618051425
2026-05-10 11:25:34.920,738,2.289219,1.6955257999999997,2.409409,-3.4578028,1.1203269,0.7422012700000001
2026-05-10 11:25:34.930,739,2.322361175,1.7384856,2.686559275,-2.230345425,1.13811835,1.0090730275
2026-05-10 11:25:34.940,740,2.5739003,1.857074775,3.373032025,2.346257,0.95944025,1.9252182
2026-05-10 11:25:34.950,741,2.8741717333333328,1.6809720333333333,2.6649319,4.743216,0.25610526,1.62144
2026-05-10 11:25:34.960,742,3.0977416,1.4577069,1.6374127,6.1779857,-0.129198,0.8892671
2026-05-10 11:25:34.970,743,2.8766313,1.5532614,0.33392194,4.9736648,0.17470746,-0.038331795
2026-05-10 11:25:34.980,744,2.8766313,1.5532614,0.33392194,4.488332366666667,0.2949461066666667,-0.20586158
2026-05-10 11:25:34.990,745,2.8556849,1.5817082,0.21025618,3.09750675,0.6706918749999999,-0.6724480875
2026-05-10 11:25:35.000,746,2.5036369,1.386940725,0.89395463,0.12202032500000001,1.5216271749999999,-1.736918975
2026-05-10 11:25:35.010,747,2.3265991,1.2795869,1.305686,-0.8330675,1.7146988,-2.181247
2026-05-10 11:25:35.020,748,2.3265991,1.2795869,1.305686,-0.8330675,1.7146988,-2.181247
2026-05-10 11:25:35.030,749,2.1877496,1.0933869999999999,1.5680488499999998,-1.0564915,1.9155970999999998,-2.5665502499999997
2026-05-10 11:25:35.040,750,1.615643,0.6984554,2.2759864,-1.19492885,2.09958205,-3.05142455
2026-05-10 11:25:35.050,751,1.4854321333333331,0.6627825666666666,2.315074033333333,-0.5771658466666666,1.9943223,-3.3159802
2026-05-10 11:25:35.060,752,1.2250104,0.5914369,2.3932493,0.14844026,1.8852829,-3.2476652
2026-05-10 11:25:35.070,753,1.1164676,0.503444,2.3343434,0.9286169666666666,1.5717052999999999,-3.1193324
2026-05-10 11:25:35.080,754,1.10242715,0.5382021499999999,2.055409625,1.7498235,1.1055133,-3.0181324
2026-05-10 11:25:35.090,755,1.0793618,0.5548951999999999,1.894577075,2.649857025,0.10777951749999998,-3.17825545
2026-05-10 11:25:35.100,756,1.0962428666666668,0.4371596666666666,1.6504011333333333,3.2517373999999997,-0.7633780033333334,-3.5200600666666664
2026-05-10 11:25:35.110,757,0.8003973200000001,0.574545725,1.554206475,3.6813792999999997,-1.1482358,-3.63090665
2026-05-10 11:25:35.120,758,0.793217,0.5321042,1.3448345999999998,4.320038966666666,-1.0888164,-3.3785939333333332
2026-05-10 11:25:35.130,759,0.8301094166666667,0.5919044466666666,1.2717815333333333,4.482783666666667,-1.0117455666666666,-3.346421733333333
2026-05-10 11:25:35.140,760,0.969599275,0.7311707199999999,0.98481352,4.588438050000001,-1.08168955,-3.5634824
2026-05-10 11:25:35.150,761,1.0353043,0.7508365,0.8439516399999999,4.4953575,-1.1091785,-3.6111300000000006
2026-05-10 11:25:35.160,762,1.1661046,0.58515614,0.86639196,4.0775256,-0.2171626,-3.7163515
2026-05-10 11:25:35.170,763,1.0676233,0.18592548,0.9218831,3.9781072,2.096184,-4.1402917
2026-05-10 11:25:35.180,764,0.8678555375,-0.09688066,1.21889731,4.1851141,1.712178875,-3.888348125
2026-05-10 11:25:35.190,765,0.8099863,-0.32514092,1.6585723,4.9360965,1.072450275,-3.5111771000000003
2026-05-10 11:25:35.200,766,1.0341457,-0.39916962000000006,2.0380456,5.3525540000000005,0.82634795,-3.4900258
2026-05-10 11:25:35.210,767,1.0341457,-0.39916962,2.0380456,5.352554,0.82634795,-3.4900258
2026-05-10 11:25:35.220,768,1.042118725,-0.41194476,2.074313,5.352554,0.82634795,-3.4900258
2026-05-10 11:25:35.230,769,1.0660378,-0.45027018,2.1831152,5.498398099999999,0.6711372766666667,-3.5122205333333336
2026-05-10 11:25:35.240,770,1.0660378,-0.45027018,2.1831152,5.7900863,0.36071593,-3.55661
2026-05-10 11:25:35.250,771,1.17580035,-0.62567675,2.348719375,7.8965025,-1.255328,-4.097226
2026-05-10 11:25:35.260,772,1.2333443333333334,-0.7970790533333334,2.004954366666667,9.758012166666667,-3.3869422,-5.099146666666667
2026-05-10 11:25:35.270,773,1.238304,-0.8748680875,1.46061875,10.24459225,-3.87170195,-6.263048725000001
2026-05-10 11:25:35.280,774,1.226657,-0.86730665,1.3783121,10.096534,-3.6780195,-6.4840293
2026-05-10 11:25:35.290,775,1.0305479666666668,-0.8111651966666665,1.1982202333333334,9.388540666666666,-2.9118926999999997,-6.6109875
2026-05-10 11:25:35.300,776,0.7834603499999999,-0.730042585,1.0843315,8.53378775,-2.209499625,-6.6262461749999995
2026-05-10 11:25:35.310,777,0.441214755,-0.517316765,1.1234497,7.756270825,-2.88744555,-5.630459425
2026-05-10 11:25:35.320,778,0.68516195,-0.3123353,0.9896309,7.0993233,-3.642895,-4.6454773
2026-05-10 11:25:35.330,779,0.4616122933333333,-0.55899606,0.7027848833333333,6.872844866666667,-3.744756666666667,-4.7543134333333334
2026-05-10 11:25:35.340,780,0.0326238535,-0.71757235,0.26102133,7.034304000000001,-4.8730629,-4.574693475
2026-05-10 11:25:35.350,781,-0.25922245,-0.88242954,-0.10134738,5.987701,-4.9900055,-3.8455493
2026-05-10 11:25:35.360,782,-0.36522456666666664,-0.9554215933333333,-0.18165694333333335,5.397605133333333,-4.511443466666666,-3.4553082333333336
2026-05-10 11:25:35.370,783,-0.46728337,-1.1845204,-0.37611952,2.5332582,-2.3408356,-1.9301815
2026-05-10 11:25:35.380,784,-0.39679144499999996,-1.2417493,-0.35675862,2.5332582,-2.3408356,-1.9301815
2026-05-10 11:25:35.390,785,-0.32629952,-1.2989782,-0.33739772,2.5332582,-2.3408356,-1.9301815
2026-05-10 11:25:35.400,786,-0.32629952,-1.2989782,-0.33739772,2.5332582,-2.3408356,-1.9301815
2026-05-10 11:25:35.410,787,-0.275077025,-1.46487205,-0.30090169499999997,2.5332582,-2.3408356,-1.9301815
2026-05-10 11:25:35.420,788,-0.35996003,-1.7705606500000002,-0.24266659499999998,1.52158895,-1.2001211,-2.39375185
2026-05-10 11:25:35.430,789,-1.3637991000000003,-2.3415391,-0.079516836,1.5590808,-0.8042041000000001,-2.7667613
2026-05-10 11:25:35.440,790,-1.64448615,-2.47301015,0.0017988820000000016,2.23561405,-1.039769,-1.97966145
2026-05-10 11:25:35.450,791,-2.209397,-2.7010722,0.19659685,3.1413745,-1.13895825,-0.6275112850000001
2026-05-10 11:25:35.460,792,-2.209397,-2.7010722,0.19659685,3.3706017,-1.0025826,-0.06246097
2026-05-10 11:25:35.470,793,-2.2178732,-2.7091620666666665,0.137304768,3.3706017,-1.0025826,-0.06246097
2026-05-10 11:25:35.480,794,-2.2348256,-2.7253418,0.018720604,3.3706017,-1.0025826,-0.06246097
2026-05-10 11:25:35.490,795,-2.20893995,-2.7139692249999996,-0.04856991200000001,3.3706017,-1.0025826,-0.06246097
2026-05-10 11:25:35.500,796,-1.9051721,-2.5300257,-0.5831438,3.020983166666667,-0.24785857666666666,0.8815803666666667
2026-05-10 11:25:35.510,797,-1.9051721,-2.5300257,-0.5831438,2.6308439,0.24266621,1.3374895
2026-05-10 11:25:35.520,798,-1.827271225,-2.492477775,-0.620828925,2.3986769249999997,0.4555145825,1.4786757
2026-05-10 11:25:35.530,799,-1.5935686,-2.379834,-0.7338843,1.702176,1.0940597,1.9022343
2026-05-10 11:25:35.540,800,-1.4554914333333333,-2.3005001333333333,-0.7392911,1.702176,1.0940597,1.9022343
2026-05-10 11:25:35.550,801,-1.1793371,-2.1418324,-0.7501047,-0.28206703,2.5254695,2.4895813
2026-05-10 11:25:35.560,802,-0.7682308250000001,-1.7085905000000001,0.7415218925,-2.48664155,3.344296375,3.09956845
2026-05-10 11:25:35.570,803,-0.45173368,-1.4591706,1.8564497,-1.6181821,3.1181617,3.87594
2026-05-10 11:25:35.580,804,-0.24384045000000001,-1.3152140075,1.7094137,-1.5249106000000001,3.729637775,4.12265325
2026-05-10 11:25:35.590,805,0.37983924,-0.88334423,1.2683057,-1.2450961,5.564066,4.862793
2026-05-10 11:25:35.600,806,0.8902755366666666,-0.64916388,1.0565657666666668,-3.0870075,7.115969,5.129894
2026-05-10 11:25:35.610,807,0.9333928874999999,-0.5345281375,1.0466159,-3.0870075,7.115969,5.129894
2026-05-10 11:25:35.620,808,1.0853072,-0.32251883,0.9736544,-3.4955237,7.1092496,5.4029503
2026-05-10 11:25:35.630,809,1.0853072,-0.32251883,0.9736544,-3.9222131,6.465906933333333,6.105954633333333
2026-05-10 11:25:35.640,810,1.1234802,-0.28294334,0.9203586,-4.5766025,5.4089065,6.9430943
2026-05-10 11:25:35.650,811,1.1802823,-0.224769215,0.8151085499999999,-4.5766025,5.4089065,6.9430943
2026-05-10 11:25:35.660,812,1.2370844,-0.16659509,0.7098584999999998,-4.5766025,5.4089065,6.943094300000001
2026-05-10 11:25:35.670,813,1.462341425,-0.1429046825,0.7915095999999999,-5.304601175,5.007567925,7.476494075
2026-05-10 11:25:35.680,814,2.1381125,-0.07183346,1.0364629,-6.0521474,4.838816,7.7747874
2026-05-10 11:25:35.690,815,2.3649549666666667,-0.004471805999999999,1.8285416333333335,-6.310645433333334,4.8133636,7.519394833333333
2026-05-10 11:25:35.700,816,2.5540666499999998,0.16334793025,2.5494779999999997,-4.24039745,4.42361895,6.46196175
2026-05-10 11:25:35.710,817,2.45197235,0.305353165,2.3497255,-3.0746374,4.2282567,5.9794545
2026-05-10 11:25:35.720,818,2.069999,0.59722996,1.425571,-2.4865777999999996,4.1944553,5.666895033333334
2026-05-10 11:25:35.730,819,1.925630725,0.62752136,0.801525425,-2.44407175,4.390250175,5.455523075
2026-05-10 11:25:35.740,820,1.8632795,0.63534194,0.48423555,-2.6936866,4.551480525,5.4228036
2026-05-10 11:25:35.750,821,1.8632795,0.63534194,0.48423555,-3.1910074,4.822476,5.3797374
2026-05-10 11:25:35.760,822,1.7109534999999998,0.56393534,0.31007907,-3.875889166666667,5.096347000000001,5.250386733333333
2026-05-10 11:25:35.770,823,1.655980775,0.526204475,0.3564994575,-5.2456527,5.644089,4.9916854
2026-05-10 11:25:35.780,824,1.4060881250000001,0.30036812,0.708013875,-6.65308605,5.8220802,4.5914923
2026-05-10 11:25:35.790,825,1.3079116499999999,0.18485834,0.93624363,-7.305032125,5.575939875,4.21550485
2026-05-10 11:25:35.800,826,1.23806,0.10689648,1.0937223,-7.365966,5.474116300000001,4.1346416
2026-05-10 11:25:35.810,827,1.212967075,0.090737001,1.135447325,-7.365966,5.4741163,4.1346416
2026-05-10 11:25:35.820,828,1.0737669,0.017882141999999997,1.3161744,-7.227605,5.117218,3.9781072
2026-05-10 11:25:35.830,829,0.8820027,-0.055247124,1.4828304,-6.146984,3.8347065,3.7714820000000002
2026-05-10 11:25:35.840,830,0.8820027,-0.055247124,1.4828304,-6.146984,3.8347065,3.771482
2026-05-10 11:25:35.850,831,0.8329144,-0.028111396,1.6049107,-5.5174875,3.2365167,3.780187
2026-05-10 11:25:35.860,832,0.85218385,-0.007845986333333332,1.6363556666666668,-5.517487499999999,3.2365167000000006,3.780187
2026-05-10 11:25:35.870,833,0.9452228,0.25228606750000004,1.35062765,-3.1779501,1.6610953,4.1762185
2026-05-10 11:25:35.880,834,1.641574425,0.630951445,0.9823286600000001,-5.462891475,3.5204166,4.1547617500000005
2026-05-10 11:25:35.890,835,2.1028666,0.9195048,1.7147341999999999,-6.127232866666667,4.062101333333334,3.2689435333333337
2026-05-10 11:25:35.900,836,2.1028666,0.9195048,1.7147342,-5.70204515,3.832034,2.80639125
2026-05-10 11:25:35.910,837,2.2536073,1.3592256,1.8348631,-3.581503,2.3515258,1.8958203
2026-05-10 11:25:35.920,838,2.4119498,1.4284979666666668,1.5764943999999999,-3.2577953333333336,2.139555533333333,1.6237816333333335
2026-05-10 11:25:35.930,839,2.7286348,1.5670427,1.059757,-2.61038,1.715615,1.0797043
2026-05-10 11:25:35.940,840,2.7393671,1.5842692999999999,0.83175588,-2.61038,1.715615,1.0797043
2026-05-10 11:25:35.950,841,2.687799033333333,1.5917595999999998,0.46569792,-3.105180733333333,1.7158696000000002,0.2648610066666667
2026-05-10 11:25:35.960,842,2.5631983,1.572287,0.18958424,-3.784463,1.8639026,-0.20112738
2026-05-10 11:25:35.970,843,2.2976952,1.5301503,0.22348866,-4.0461805,1.918918625,-0.24281893499999999
2026-05-10 11:25:35.980,844,2.2976952,1.5301503,0.22348866,-5.1893001,2.1731530666666665,-0.32594752
2026-05-10 11:25:35.990,845,2.3671503,1.4761227,0.80346155,-5.9052343,2.3515258,-0.24205536
2026-05-10 11:25:36.000,846,2.6879922,1.4684088,1.238761375,-5.7986385,2.28593425,-0.36690094
2026-05-10 11:25:36.010,847,3.0088341,1.4606949,1.6740612,-5.562081,2.1997259,-0.5056437
2026-05-10 11:25:36.020,848,2.9870848333333337,1.4932171333333333,1.7984586666666666,-5.021414333333333,1.9105829666666665,-0.6622797333333333
2026-05-10 11:25:36.030,849,2.28681025,1.685951975,2.72621095,-2.31678285,0.60872725,-0.324674875
2026-05-10 11:25:36.040,850,2.535331,1.8601085,3.146464,-2.097864,0.5502369,-0.1956296
2026-05-10 11:25:36.050,851,2.535331,1.8601085,3.146464,-1.0385218333333333,0.34091372000000003,0.3529274
2026-05-10 11:25:36.060,852,2.535331,1.8601085,3.146464,-0.50885075,0.23625213,0.6272059
2026-05-10 11:25:36.070,853,2.535331,1.8601085,3.146464,-0.50885075,0.23625213,0.6272059
2026-05-10 11:25:36.080,854,3.1512814999999996,1.95633375,3.16939215,1.4653129375,-0.03749185499999999,0.7759897375
2026-05-10 11:25:36.090,855,3.767232,2.052559,3.1923203,2.1233675,-0.12873985,0.8255843500000001
2026-05-10 11:25:36.100,856,4.08188475,2.081234275,2.01520905,4.42503155,-0.8015697325,-1.0451522500000001
2026-05-10 11:25:36.110,857,4.046456,2.066645,1.6661948,4.9616003,-1.0074695,-1.5813774
2026-05-10 11:25:36.120,858,3.3071444,1.9909495333333334,0.9077765533333334,4.514141433333333,-1.1247556333333333,-1.9105319333333333
2026-05-10 11:25:36.130,859,2.9374886,1.9531018,0.52856743,3.2795827,-1.3213016,-2.2368357
2026-05-10 11:25:36.140,860,2.9374886,1.9531018,0.52856743,3.2795827,-1.3213016,-2.2368357
2026-05-10 11:25:36.150,861,2.92535365,1.90812965,0.6109198149999999,2.60946355,-1.3158037999999999,-2.39474435
2026-05-10 11:25:36.160,862,2.9132187,1.8631575,0.6932722,1.9393444,-1.310306,-2.552653
2026-05-10 11:25:36.170,863,2.9108811666666665,1.8260008333333335,0.8051283000000001,1.9393444000000002,-1.310306,-2.552653
2026-05-10 11:25:36.180,864,2.8283663,1.641284725,1.3127137,0.8426504275,-0.9499718374999999,-3.40045765
2026-05-10 11:25:36.190,865,2.448054525,1.3853095,1.834100875,0.5654321425,-0.8140161125,-4.03052705
2026-05-10 11:25:36.200,866,1.8809635,1.1139471,2.388533666666667,0.7910705,-0.8978192000000002,-4.224133
2026-05-10 11:25:36.210,867,1.7193077,0.9966435,2.5386846,2.3662248,-1.624901575,-4.180914425
2026-05-10 11:25:36.220,868,1.554541975,0.888115845,2.536519975,3.5242344,-2.0173825,-4.233677849999999
2026-05-10 11:25:36.230,869,1.197204,0.7159564499999999,2.3956277,4.624351666666667,-2.067778833333333,-4.2087089
2026-05-10 11:25:36.240,870,1.265485425,0.68933901,2.3081834,5.350377999999999,-2.0333412500000003,-4.131586875
2026-05-10 11:25:36.250,871,1.4242903999999998,0.62104234,2.22342225,5.844988,-2.0261636000000003,-4.2061888
2026-05-10 11:25:36.260,872,1.6974466,0.412874715,1.9953754750000001,6.63792915,-1.7873153,-4.654907724999999
2026-05-10 11:25:36.270,873,1.8397415,0.18116911,1.7063800999999998,7.032128,-1.4941764,-5.1175237
2026-05-10 11:25:36.280,874,1.8397415,0.18116911,1.7063801,7.057631600000001,-1.4078534999999999,-5.255960975
2026-05-10 11:25:36.290,875,1.76479805,0.027897969999999994,1.54963315,7.1341424,-1.1488848,-5.6712728
2026-05-10 11:25:36.300,876,1.4611015333333333,-0.30241602333333334,1.1727106666666667,7.101868266666667,-1.1282680999999999,-5.717800533333333
2026-05-10 11:25:36.310,877,1.1598237999999998,-0.44350149,0.963897675,6.967834125,-1.233184225,-5.7492730000000005
2026-05-10 11:25:36.320,878,0.9729226,-0.49606553,0.86517245,6.7593765,-1.6716328,-5.564524
2026-05-10 11:25:36.330,879,0.8880395999999999,-0.4808207433333333,0.8603347766666666,6.759376499999999,-1.6716328,-5.564524
2026-05-10 11:25:36.340,880,1.0255171,-0.4544015125,1.072638885,6.353036925,-3.37083075,-4.8849365
2026-05-10 11:25:36.350,881,1.2413529250000002,-0.4423276525,1.3292544,6.54561175,-4.13490845,-5.000924525
2026-05-10 11:25:36.360,882,1.30153935,-0.415374855,1.29827695,6.6115475,-4.5420885,-5.135697
2026-05-10 11:25:36.370,883,1.3042834,-0.40703595,1.267391,6.6115475,-4.5420885,-5.135697
2026-05-10 11:25:36.380,884,1.37608635,-0.372857125,1.2261386,6.45531875,-4.430452750000001,-5.18800215
2026-05-10 11:25:36.390,885,1.47325665,-0.34459328,1.19252385,6.29909,-4.318817,-5.2403073
2026-05-10 11:25:36.400,886,1.5493587,-0.36233822,1.2154368,5.6231675,-3.366631,-5.4982452
2026-05-10 11:25:36.410,887,1.5366445,-0.372125375,1.2187602,5.367596600000001,-2.9365055,-5.516647600000001
2026-05-10 11:25:36.420,888,1.195191725,-0.27997061749999996,1.4138477249999999,5.36515305,-3.3352477,-5.3428565
2026-05-10 11:25:36.430,889,0.8842589,-0.22976951,1.5997274,7.282124666666667,-8.032165133333333,-4.2734605666666665
2026-05-10 11:25:36.440,890,1.0257305749999999,-0.17729693475,1.500499075,7.53590105,-8.8775515,-4.021974950000001
2026-05-10 11:25:36.450,891,1.8542545499999998,-0.011067718749999999,1.061189965,6.79935025,-8.127523499999999,-4.3975044
2026-05-10 11:25:36.460,892,1.9921691,0.044779036333333334,0.72721722,4.8794389,-5.928701533333334,-5.405852133333333
2026-05-10 11:25:36.470,893,1.475619575,0.05110053975,0.4353302475,3.2850807,-4.9182286,-5.6856284
2026-05-10 11:25:36.480,894,0.77906984,-0.0078053335,0.16464376,3.2850807,-4.9182286,-5.6856284
2026-05-10 11:25:36.490,895,0.7775148700000001,-0.059058323749999996,0.21489058,1.719662075,-4.2366176499999995,-5.1887276
2026-05-10 11:25:36.500,896,0.8017845825000001,-0.1479354605,0.349364875,0.527367575,-3.6704220000000003,-4.80178275
2026-05-10 11:25:36.510,897,0.8503545,-0.4188659,0.89846706,-0.21048126,-3.1503085000000004,-4.5988228
2026-05-10 11:25:36.520,898,0.7387626333333334,-0.6043645,1.0864454866666666,-0.40943244,-2.795014,-4.5555277
2026-05-10 11:25:36.530,899,0.33265661,-1.074529145,1.2409261,0.6797784875,-1.894293125,-4.564995975
2026-05-10 11:25:36.540,900,-0.1853157,-1.6135697,1.2401943,2.1820107,-1.74486025,-4.60302235
2026-05-10 11:25:36.550,901,-0.33569033333333326,-1.7846772333333334,1.1684014333333332,2.3727534,-1.8154916000000003,-4.6199737
2026-05-10 11:25:36.560,902,-0.5930528875000001,-1.977325675,1.01403775,2.603927675,-2.0080287,-4.629098525
2026-05-10 11:25:36.570,903,-1.25101805,-2.3748642,0.542348725,3.24121275,-2.63993065,-4.579618575
2026-05-10 11:25:36.580,904,-1.5853364,-2.6036277,0.1934869,3.0724995000000006,-2.8028026,-4.3490553
2026-05-10 11:25:36.590,905,-1.9018793,-2.6949742,-0.06213777,2.6613872499999998,-2.64237405,-4.08775765
2026-05-10 11:25:36.600,906,-1.8468964,-2.7057879,0.15031365333333332,1.3466015999999998,-0.8741482333333332,-2.7250190503500002
2026-05-10 11:25:36.610,907,-1.7919135,-2.7166016,0.3627650766666667,0.031815949999999926,0.8940775833333334,-1.3622804507000001
2026-05-10 11:25:36.620,908,-1.7369306,-2.7274153,0.5752165,-1.2829697,2.6623034,0.00045814895
2026-05-10 11:25:36.630,909,-1.7369306,-2.7274153,0.5752165,-1.0862712,2.777757,0.40668353
2026-05-10 11:25:36.640,910,-1.370537275,-2.5506824,0.30792955625,-1.07405385,3.050661,0.761061715
2026-05-10 11:25:36.650,911,-0.9271883,-2.3190987,-0.020245085,-1.0618365,3.323565,1.1154399
2026-05-10 11:25:36.660,912,-0.9271883,-2.3190987,-0.020245085,-1.10879675,3.38827855,1.1412108
2026-05-10 11:25:36.670,913,-0.6455407175,-2.01571215,-0.23092810625,-2.1865539,4.428849275,1.37452315
2026-05-10 11:25:36.680,914,-0.2983913933333333,-1.4090253666666666,-0.06917070466666665,-5.220708866666667,5.821953133333333,1.9801705666666667
2026-05-10 11:25:36.690,915,-0.12366576,-1.1962893,0.42850062,-6.629415,6.0457335,2.382527
2026-05-10 11:25:36.700,916,-0.12366576,-1.1962893,0.42850062,-6.629415,6.0457335,2.382527
2026-05-10 11:25:36.710,917,-0.14330104,-1.0843315,0.6853449,-7.233408,5.9504385,2.4952319
2026-05-10 11:25:36.720,918,-0.14330104,-1.0843315,0.6853449,-7.4829464,5.8018456,2.7409523
2026-05-10 11:25:36.730,919,-0.24480087,-1.0217669,0.6697647,-7.4829464,5.8018456,2.7409523
2026-05-10 11:25:36.740,920,-0.3463007,-0.9592023,0.6541845,-7.4829464,5.8018456,2.7409523
2026-05-10 11:25:36.750,921,-0.439110985,-0.97161155,0.69223552,-7.6503236999999995,5.63462115,2.9888109
2026-05-10 11:25:36.760,922,0.21501253999999997,-0.7196761625,1.9174289249999998,-6.6522844,3.274848575,5.594685875
2026-05-10 11:25:36.770,923,0.8362683,-0.5505809,2.1741512,-5.525887,1.9078848,7.097491
2026-05-10 11:25:36.780,924,1.9384465000000002,-0.15185845333333334,2.3688374666666667,-5.525887,1.9078848,7.097491000000001
2026-05-10 11:25:36.790,925,2.567344975,0.1624027525,2.39704545,-5.525887,1.9078848,7.097491
2026-05-10 11:25:36.800,926,2.8007731,0.5071027,2.18964,-5.31017515,2.07052765,6.4824258
2026-05-10 11:25:36.810,927,2.539096275,0.5311742500000001,1.9670202999999997,-5.3104424,2.54349005,5.5625388749999995
2026-05-10 11:25:36.820,928,1.7540658,0.6033889,1.2991612,-5.958379699999999,3.4744487,4.6480737
2026-05-10 11:25:36.830,929,1.55460295,0.507377175,1.27961735,-6.564625175,3.681646625,4.5661794
2026-05-10 11:25:36.840,930,1.14528025,0.30626786,1.4042893,-6.8673470000000005,3.5185456,4.6986608499999996
2026-05-10 11:25:36.850,931,0.74595815,0.017562,1.8413268,-6.863071000000001,3.0266845,5.0486484
2026-05-10 11:25:36.860,932,0.74595815,0.017562,1.8413268,-6.863071,3.0266845,5.0486484
2026-05-10 11:25:36.870,933,1.033246225,0.0033081199999999995,1.900110825,-5.7407969,2.3165537,5.5301629000000005
2026-05-10 11:25:36.880,934,1.1810851666666666,0.055145492666666664,1.8257772333333335,-5.5266504,2.210874,5.5799484
2026-05-10 11:25:36.890,935,1.3527619,0.14104481,1.7091851,-5.1903693749999995,2.008486725,5.5104246
2026-05-10 11:25:36.900,936,1.3527619,0.14104481,1.7091851,-5.0782757,1.9410243,5.48725
2026-05-10 11:25:36.910,937,1.6576273,0.28744055,1.522771775,-4.837976675,1.737606225,5.1540610000000004
2026-05-10 11:25:36.920,938,1.7748191,0.3694118066666667,1.3945732666666668,-4.8140765,1.6610953666666666,4.631478433333333
2026-05-10 11:25:36.930,939,1.02259013,0.361987595,0.8845942875,-5.807954175,1.949499925,3.592536575
2026-05-10 11:25:36.940,940,0.86273324,0.3196528,0.8610868000000002,-6.1017804,2.051438,3.520569
2026-05-10 11:25:36.950,941,0.671472115,0.16458277500000001,1.2087291,-6.592458,2.4885123,3.6517525
2026-05-10 11:25:36.960,942,0.6461353,0.13019052,1.3071494,-6.600399,2.6561947,3.700927
2026-05-10 11:25:36.970,943,0.6461353,0.13019052,1.3071494,-6.600399,2.6561947,3.700927
2026-05-10 11:25:36.980,944,1.007192915,0.1992341875,1.41646985,-5.75793955,2.510312425,3.76216625
2026-05-10 11:25:36.990,945,1.3953253,0.34166628,1.405143,-5.3464456,2.3973405,3.7519343
2026-05-10 11:25:37.000,946,1.3953253000000003,0.34166627999999993,1.405143,-5.041216566666667,2.1917844,3.5795175999999995
2026-05-10 11:25:37.010,947,1.3953253,0.34166628,1.405143,-4.4307585,1.7806722,3.2346842
2026-05-10 11:25:37.020,948,1.295121325,0.4913091825,1.171806225,-4.070080575,1.4226288,2.9428433
2026-05-10 11:25:37.030,949,1.122184375,0.7104987875000001,0.9507871775,-3.98994265,1.1582769,2.8197539
2026-05-10 11:25:37.040,950,1.0756725,0.766935,0.90304047,-4.0300307,1.0132728,2.7939448
2026-05-10 11:25:37.050,951,1.6757075499999998,1.240255275,1.3433101,-4.2011113,1.393383625,2.7034986500000002
2026-05-10 11:25:37.060,952,2.21220215,1.49362375,1.0371032,-4.3950226,1.678505,1.8243490000000002
2026-05-10 11:25:37.070,953,2.3481247,1.5361871999999999,0.805047,-4.820541133333333,1.6749925,1.2589423333333334
2026-05-10 11:25:37.080,954,2.4043475,1.49953875,0.76034925,-5.6914315,1.3761266,0.73960507
2026-05-10 11:25:37.090,955,2.4105878666666665,1.4871599666666666,0.9411322333333333,-6.29909,1.2524265,0.6382015
2026-05-10 11:25:37.100,956,2.48109,1.521841875,1.7043678,-6.3664374,0.84650654,0.49281552
2026-05-10 11:25:37.110,957,2.4552653,1.6197896,2.160614,-6.2779001999999995,0.76686498,0.4832707525
2026-05-10 11:25:37.120,958,2.4552653,1.6197896,2.160614,-5.4770688666666665,0.3202461066666667,0.5133813233333333
2026-05-10 11:25:37.130,959,2.4563628,1.9555868250000001,3.20751935,-4.8626401999999995,0.1710040875,0.609948935
2026-05-10 11:25:37.140,960,2.576186875,2.073810175,3.491788925,-3.1831806,-0.1282053475,0.895299345
2026-05-10 11:25:37.150,961,2.86285,2.268181,3.8699207,-1.266171,-0.61727935,1.146594
2026-05-10 11:25:37.160,962,3.2539702,2.4479173,4.053087425,-0.09456959999999998,-1.0272080875,1.1594222250000001
2026-05-10 11:25:37.170,963,4.177880875,2.6449411,3.5571894,3.1987194,-1.7665841999999998,0.522366138
2026-05-10 11:25:37.180,964,4.542140075000001,2.661420725,2.966880425,5.177846425,-2.007608775,-0.14763848925
2026-05-10 11:25:37.190,965,4.575389,2.6516793,2.8319945,5.6644006,-1.8674150999999999,-0.63270366
2026-05-10 11:25:37.200,966,3.85563655,2.332758125,1.7218992499999999,5.17395235,-0.961960065,-2.56639755
2026-05-10 11:25:37.210,967,3.3264136,2.1228678,1.138664,4.31813005,-0.72860953,-2.98056425
2026-05-10 11:25:37.220,968,3.3264136,2.1228678,1.138664,3.9132028,-0.68279463,-3.0708196
2026-05-10 11:25:37.230,969,3.235707075,2.08827735,1.1171536,3.9132028,-0.68279463,-3.0708196
2026-05-10 11:25:37.240,970,2.80449295,1.80955685,1.2041251499999999,3.5396587,-0.77243909,-3.09960665
2026-05-10 11:25:37.250,971,2.6453984,1.6346077,1.3556279,2.85709315,-1.1686997125,-3.31852545
2026-05-10 11:25:37.260,972,2.6266168000000003,1.5885684,1.4013216,2.7153978000000003,-1.4086553000000002,-3.5802302333333333
2026-05-10 11:25:37.270,973,2.5890536,1.4964898,1.492709,2.6960537,-1.4775304,-3.679394
2026-05-10 11:25:37.280,974,2.1946809333333337,1.3063160666666667,1.5890561333333333,2.7134124666666666,-1.6956092333333332,-3.9470549
2026-05-10 11:25:37.290,975,1.823505775,1.11846465,1.8279878,2.9503646249999997,-2.11725895,-4.1870996
2026-05-10 11:25:37.300,976,1.6028373999999999,0.910891575,2.244871825,3.4610098,-2.321593375,-4.172324325
2026-05-10 11:25:37.310,977,1.5974712,0.8799294,2.3056223,4.0822597,-2.4054346,-4.1470113
2026-05-10 11:25:37.320,978,1.4856964333333333,0.61442611,2.4427645666666664,5.9172481333333335,-3.0324367999999997,-4.4403795
2026-05-10 11:25:37.330,979,1.2964324,0.28242502,1.938787,7.5093665,-3.3605225,-4.6691484
2026-05-10 11:25:37.340,980,1.268061825,-0.005625326499999996,1.105003545,7.9489602999999995,-3.5443928500000004,-4.7311513000000005
2026-05-10 11:25:37.350,981,1.3255448333333335,-0.09691622333333333,0.7941113933333334,7.533037566666667,-3.7091737666666664,-4.845281233333334
2026-05-10 11:25:37.360,982,1.3522893,-0.07410493625,0.733076325,6.4659707,-3.60544125,-5.01963225
2026-05-10 11:25:37.370,983,1.3212966,-0.04268542,0.793278,4.1338778,-3.2241468,-5.332548
2026-05-10 11:25:37.380,984,1.0918015,-0.2523775425,1.373738675,5.0371948,-4.554115025,-5.29711775
2026-05-10 11:25:37.390,985,1.1029302,-0.2591005,1.3624575,5.2758904,-4.6865582,-5.266269
2026-05-10 11:25:37.400,986,1.2233031,-0.26983282,1.2153758,5.44620745,-4.7849456,-5.3490795
2026-05-10 11:25:37.410,987,1.2233031,-0.26983282,1.2153758,5.4982964333333335,-4.878675266666667,-5.428555666666667
2026-05-10 11:25:37.420,988,1.2862335,-0.2306841925,1.06198265,5.4889297,-5.000543,-5.532301
2026-05-10 11:25:37.430,989,1.30743905,-0.1630735425,0.73364034,4.792199875,-5.5290177499999995,-5.9391373750000005
2026-05-10 11:25:37.440,990,1.3050761,-0.14580119,0.6357078,4.5599566,-5.705176,-6.0747495
2026-05-10 11:25:37.450,991,1.1723854333333332,-0.16775369666666665,0.6331466666666666,3.4436,-5.683490166666666,-6.180785266666667
2026-05-10 11:25:37.460,992,1.137947475,-0.1825106475,0.809696575,2.13527945,-5.15967325,-6.007439825
2026-05-10 11:25:37.470,993,1.1833616999999998,-0.196749285,1.0666476,1.65193235,-4.6199738,-5.8796544
2026-05-10 11:25:37.480,994,1.1622832333333333,-0.21194326333333333,1.2152539,1.4695891,-4.2410846,-5.8157425
2026-05-10 11:25:37.490,995,1.0997593,-0.23605035,1.2431823,1.48020285,-3.9842158,-5.753357899999999
2026-05-10 11:25:37.500,996,1.0997593,-0.23605035,1.2431823,1.4908166,-3.727347,-5.6909733
2026-05-10 11:25:37.510,997,1.0997593,-0.23605035,1.2431823,1.4908165999999998,-3.727347,-5.6909733
2026-05-10 11:25:37.520,998,0.689171325,-0.24545638999999997,1.0174526075,1.89142965,-3.572721825,-5.196248925
2026-05-10 11:25:37.530,999,0.6022912,-0.25074634,0.91987073,2.5858943666666665,-3.9009856,-4.257119800000001
2026-05-10 11:25:37.540,1000,0.468442,-0.28233355,0.7741305,2.8276951,-4.0088034,-3.8353174
2026-05-10 11:25:37.550,1001,0.468442,-0.28233355,0.7741305,2.7882943,-3.601356,-3.3134859
