timestamp,id,acc_x,acc_y,acc_z,gyro_x,gyro_y,gyro_z
2026-05-10 11:32:20.560,1,0.45911217,0.26123476,0.89340574,0.2764165,-0.8678868,-0.061850104
2026-05-10 11:32:20.570,2,0.50161463,0.2771503,0.86437976,0.2764165,-0.8678868,-0.061850104
2026-05-10 11:32:20.580,3,0.50161463,0.2771503,0.86437976,0.2764165,-0.8678868,-0.061850104
2026-05-10 11:32:20.590,4,0.48179638,0.25178298,0.8029127,0.2764165,-0.8678868,-0.061850104
2026-05-10 11:32:20.600,5,0.48179638,0.25178298,0.8029127,0.2764165,-0.8678868,-0.061850104
2026-05-10 11:32:20.610,6,0.48179638,0.25178298,0.8029127,0.2764165,-0.8678868,-0.061850104
2026-05-10 11:32:20.620,7,0.48179638,0.25178298,0.8029126999999999,0.2764165,-0.8678868,-0.061850103999999996
2026-05-10 11:32:20.630,8,0.48179638,0.25178298,0.8029126999999999,0.2764165,-0.8678868,-0.061850103999999996
2026-05-10 11:32:20.640,9,0.48179638,0.25178298,0.8029126999999999,0.2764165,-0.8678868,-0.061850103999999996
2026-05-10 11:32:20.650,10,0.48179638,0.25178298,0.8029126999999999,0.2764165,-0.8678868,-0.061850103999999996
2026-05-10 11:32:20.660,11,0.48179638,0.25178298,0.8029127,0.2764165,-0.8678868,-0.061850104
2026-05-10 11:32:20.670,12,0.48179638,0.25178298,0.8029127,0.2764165,-0.8678868,-0.061850104
2026-05-10 11:32:20.680,13,0.48179638,0.25178298,0.8029126999999999,0.2764165,-0.8678868,-0.061850103999999996
2026-05-10 11:32:20.690,14,0.38241559750000004,0.2128173,0.7246154525,0.50675092,-1.4569518,-0.3520874485
2026-05-10 11:32:20.700,15,0.34928867,0.19982874,0.69851637,0.58352906,-1.6533068,-0.44883323
2026-05-10 11:32:20.710,16,0.34928867,0.19982874,0.69851637,0.58352906,-1.6533068,-0.44883323
2026-05-10 11:32:20.720,17,0.34928867,0.19982874,0.69851637,0.58352906,-1.6533068,-0.44883323
2026-05-10 11:32:20.730,18,0.34928867,0.19982873999999998,0.69851637,0.58352906,-1.6533068,-0.44883323
2026-05-10 11:32:20.740,19,0.34928867,0.19982874,0.69851637,0.58352906,-1.6533068,-0.44883323
2026-05-10 11:32:20.750,20,0.34928867,0.19982874,0.69851637,0.58352906,-1.6533068,-0.44883323
2026-05-10 11:32:20.760,21,0.34928867,0.19982874,0.69851637,0.58352906,-1.6533068,-0.44883323
2026-05-10 11:32:20.770,22,0.34928867,0.19982874,0.69851637,0.58352906,-1.6533068,-0.44883323
2026-05-10 11:32:20.780,23,0.34928867,0.19982873999999998,0.69851637,0.58352906,-1.6533068,-0.44883323
2026-05-10 11:32:20.790,24,0.34928867,0.19982874,0.69851637,0.58352906,-1.6533068,-0.44883323
2026-05-10 11:32:20.800,25,0.34928867,0.19982874,0.69851637,0.58352906,-1.6533068,-0.44883323
2026-05-10 11:32:20.810,26,0.34928867,0.19982874,0.69851637,0.58352906,-1.6533068,-0.44883323
2026-05-10 11:32:20.820,27,0.34928867,0.19982874,0.69851637,0.58352906,-1.6533068,-0.44883323
2026-05-10 11:32:20.830,28,0.34928867,0.19982874,0.69851637,0.58352906,-1.6533068,-0.44883323
2026-05-10 11:32:20.840,29,0.34928867,0.19982873999999998,0.69851637,0.58352906,-1.6533068,-0.44883323
2026-05-10 11:32:20.850,30,0.34928867,0.19982874,0.69851637,0.58352906,-1.6533068,-0.44883323
2026-05-10 11:32:20.860,31,0.34928867,0.19982874,0.69851637,0.58352906,-1.6533068,-0.44883323
2026-05-10 11:32:20.870,32,0.34928867,0.19982874,0.69851637,0.58352906,-1.6533068,-0.44883323
2026-05-10 11:32:20.880,33,0.34928867,0.19982874,0.69851637,0.58352906,-1.6533068,-0.44883323
2026-05-10 11:32:20.890,34,0.34928867,0.19982873999999998,0.69851637,0.58352906,-1.6533068,-0.44883323
2026-05-10 11:32:20.900,35,0.34928867,0.19982874,0.69851637,0.58352906,-1.6533068,-0.44883323
2026-05-10 11:32:20.910,36,0.34928867,0.19982874,0.69851637,0.58352906,-1.6533068,-0.44883323
2026-05-10 11:32:20.920,37,0.34928867,0.19982874,0.69851637,0.58352906,-1.6533068,-0.44883323
2026-05-10 11:32:20.930,38,0.34928867,0.19982874,0.69851637,0.58352906,-1.6533068,-0.44883323
2026-05-10 11:32:20.940,39,0.34928867,0.19982873999999998,0.69851637,0.58352906,-1.6533068,-0.44883323
2026-05-10 11:32:20.950,40,0.34928867,0.19982874,0.69851637,0.58352906,-1.6533068,-0.44883323
2026-05-10 11:32:20.960,41,0.34928867,0.19982874,0.69851637,0.58352906,-1.6533068,-0.44883323
2026-05-10 11:32:20.970,42,0.34928867,0.19982874,0.69851637,0.58352906,-1.6533068,-0.44883323
2026-05-10 11:32:20.980,43,0.28019926,0.16921718,0.6188166,0.5708536,-1.6904168,-0.41981715
2026-05-10 11:32:20.990,44,0.28019926,0.16921718,0.6188166,0.5708536,-1.6904168000000002,-0.4198171499999999
2026-05-10 11:32:21.000,45,0.28019926,0.16921718,0.6188166,0.5708536,-1.6904168,-0.41981715
2026-05-10 11:32:21.010,46,0.28019926,0.16921718,0.6188166,0.5708536,-1.6904168,-0.41981715
2026-05-10 11:32:21.020,47,0.28019926,0.16921718,0.6188166,0.5708536,-1.6904168,-0.41981715
2026-05-10 11:32:21.030,48,0.28019926,0.16921718,0.6188166,0.5708536,-1.6904168,-0.41981715
2026-05-10 11:32:21.040,49,0.28019926,0.16921718,0.6188166,0.5708536,-1.6904168,-0.41981715
2026-05-10 11:32:21.050,50,0.28019926,0.16921718,0.6188166,0.5708536,-1.6904168,-0.41981715
2026-05-10 11:32:21.060,51,0.28019926,0.16921718,0.6188166,0.5708536,-1.6904168,-0.41981715
2026-05-10 11:32:21.070,52,0.28019926,0.16921718,0.6188166,0.5708536,-1.6904168000000002,-0.4198171499999999
2026-05-10 11:32:21.080,53,0.28019926,0.16921718,0.6188166,0.5708536,-1.6904168,-0.41981715
2026-05-10 11:32:21.090,54,0.28019926,0.16921718,0.6188166,0.5708536,-1.6904168,-0.41981715
2026-05-10 11:32:21.100,55,0.28019926,0.16921718,0.6188166,0.430774525,-1.6712891,-0.2214386625
2026-05-10 11:32:21.110,56,0.28019926,0.16921718,0.6188166,0.3840815,-1.6649132,-0.1553125
2026-05-10 11:32:21.120,57,0.28019926,0.16921718,0.6188166,0.3840815,-1.6649132,-0.1553125
2026-05-10 11:32:21.130,58,0.28019926,0.16921718,0.6188166,0.3840815,-1.6649132,-0.1553125
2026-05-10 11:32:21.140,59,0.28019926,0.16921718,0.6188166,0.3840815,-1.6649132,-0.1553125
2026-05-10 11:32:21.150,60,0.28019926,0.16921718,0.6188166,0.3840815,-1.6649132,-0.1553125
2026-05-10 11:32:21.160,61,0.28019926,0.16921718,0.6188166,0.3840815,-1.6649132,-0.1553125
2026-05-10 11:32:21.170,62,0.28019926,0.16921718,0.6188166,0.3840815,-1.6649132,-0.1553125
2026-05-10 11:32:21.180,63,0.28019926,0.16921718,0.6188166,0.3840815,-1.6649132,-0.1553125
2026-05-10 11:32:21.190,64,0.21653701749999998,0.10235352875,0.47013414,0.28294514,-1.673961725,0.012370020500000002
2026-05-10 11:32:21.200,65,0.19531627,0.080065645,0.42057332,0.24923302,-1.6769779,0.068264194
2026-05-10 11:32:21.210,66,0.19531627,0.080065645,0.42057332,0.24923302,-1.6769779,0.068264194
2026-05-10 11:32:21.220,67,0.19531627,0.080065645,0.42057332,0.24923302,-1.6769779,0.068264194
2026-05-10 11:32:21.230,68,0.19531627,0.080065645,0.42057332,0.24923302,-1.6769779,0.068264194
2026-05-10 11:32:21.240,69,0.19531627,0.080065645,0.42057332,0.1853976,-1.7699821,0.22143865
2026-05-10 11:32:21.250,70,0.19531627,0.080065645,0.42057332,0.1853976,-1.7699821,0.22143865
2026-05-10 11:32:21.260,71,0.19531627,0.080065645,0.42057332,0.1853976,-1.7699821,0.22143865
2026-05-10 11:32:21.270,72,0.19531627,0.080065645,0.42057332,0.1853976,-1.7699821,0.22143865
2026-05-10 11:32:21.280,73,0.19531627,0.080065645,0.42057332,0.1853976,-1.7699821,0.22143865
2026-05-10 11:32:21.290,74,0.19531627,0.080065645,0.42057332,0.1853976,-1.7699821,0.22143865
2026-05-10 11:32:21.300,75,0.19531627,0.080065645,0.42057332,0.1853976,-1.7699821,0.22143865
2026-05-10 11:32:21.310,76,0.19531627,0.080065645,0.42057332,0.18539760000000002,-1.7699821,0.22143865
2026-05-10 11:32:21.320,77,0.19531627,0.080065645,0.42057332,0.1853976,-1.7699821,0.22143865
2026-05-10 11:32:21.330,78,0.19531627,0.080065645,0.42057332,0.1853976,-1.7699821,0.22143865
2026-05-10 11:32:21.340,79,0.19531627,0.080065645,0.42057332,0.1853976,-1.7699821,0.22143865
2026-05-10 11:32:21.350,80,0.21295957,0.06921135499999999,0.40049084,0.18539760000000002,-1.7699821,0.22143865
2026-05-10 11:32:21.360,81,0.25324647,0.052381105,0.38371140000000004,0.15699236,-1.9341521,0.36636642
2026-05-10 11:32:21.370,82,0.28471172,0.040978,0.3769732,0.15699236,-1.9341521,0.36636642
2026-05-10 11:32:21.380,83,0.28471172,0.040978,0.3769732,0.15699236,-1.9341521,0.36636642
2026-05-10 11:32:21.390,84,0.28471172,0.040978,0.3769732,0.15699236,-1.9341521,0.36636642
2026-05-10 11:32:21.400,85,0.28471172,0.040978,0.3769732,0.15699236,-1.9341521,0.36636642
2026-05-10 11:32:21.410,86,0.28471172,0.040978,0.37697319999999995,0.15699236,-1.9341520999999997,0.36636642
2026-05-10 11:32:21.420,87,0.28471172,0.040978,0.3769732,0.15699236,-1.9341521,0.36636642
2026-05-10 11:32:21.430,88,0.28471172,0.040978,0.3769732,0.15699236,-1.9341521,0.36636642
2026-05-10 11:32:21.440,89,0.28471172,0.040978,0.3769732,0.15699236,-1.9341521,0.36636642
2026-05-10 11:32:21.450,90,0.28471172,0.040978,0.3769732,0.15699236,-1.9341521,0.36636642
2026-05-10 11:32:21.460,91,0.28471172,0.040978,0.3769732,0.15699236,-1.9341521,0.36636642
2026-05-10 11:32:21.470,92,0.28471172,0.040978,0.37697319999999995,0.15699236,-1.9341520999999997,0.36636642
2026-05-10 11:32:21.480,93,0.28471172,0.040978,0.3769732,0.15699236,-1.9341521,0.36636642
2026-05-10 11:32:21.490,94,0.28471172,0.040978,0.3769732,0.15699236,-1.9341521,0.36636642
2026-05-10 11:32:21.500,95,0.28471172,0.040978,0.3769732,0.15699236,-1.9341521,0.36636642
2026-05-10 11:32:21.510,96,0.28471172,0.040978,0.3769732,0.15699236,-1.9341521,0.36636642
2026-05-10 11:32:21.520,97,0.28471172,0.040978,0.37697319999999995,0.15699236,-1.9341520999999997,0.36636642
2026-05-10 11:32:21.530,98,0.28471172,0.040978,0.3769732,0.15699236,-1.9341521,0.36636642
2026-05-10 11:32:21.540,99,0.28471172,0.040978,0.3769732,0.15699236,-1.9341521,0.36636642
2026-05-10 11:32:21.550,100,0.28471172,0.040978,0.3769732,0.15699236,-1.9341521,0.36636642
2026-05-10 11:32:21.560,101,0.28471172,0.040978,0.3769732,0.15699236,-1.9341521,0.36636642
2026-05-10 11:32:21.570,102,0.28471172,0.040978,0.37697319999999995,0.15699236,-1.9341520999999997,0.36636642
2026-05-10 11:32:21.580,103,0.28471172,0.040978,0.3769732,0.15699236,-1.9341521,0.36636642
2026-05-10 11:32:21.590,104,0.28471172,0.040978,0.3769732,0.15699236,-1.9341521,0.36636642
2026-05-10 11:32:21.600,105,0.34623972,0.023050126,0.3679483,0.15699236,-1.9341521,0.36636642
2026-05-10 11:32:21.610,106,0.34623972,0.023050126,0.3679483,0.15699236,-1.9341521,0.36636642
2026-05-10 11:32:21.620,107,0.34623972,0.023050126,0.36794829999999995,0.15699236,-1.9341520999999997,0.36636642
2026-05-10 11:32:21.630,108,0.34623972,0.023050126,0.3679483,0.156877825,-1.95873945,0.3847305575
2026-05-10 11:32:21.640,109,0.34623972,0.023050126,0.3679483,0.15653422,-2.0325015,0.43982297
2026-05-10 11:32:21.650,110,0.34623972,0.023050126,0.3679483,0.15653422,-2.0325015,0.43982297
2026-05-10 11:32:21.660,111,0.34623972,0.023050126,0.36794829999999995,0.15653422,-2.0325015,0.43982297
2026-05-10 11:32:21.670,112,0.34623972,0.023050126,0.3679483,0.15653422,-2.0325015,0.43982297
2026-05-10 11:32:21.680,113,0.34623972,0.023050126,0.3679483,0.15653422,-2.0325015,0.43982297
2026-05-10 11:32:21.690,114,0.34623972,0.023050126,0.3679483,0.15653422,-2.0325015,0.43982297
2026-05-10 11:32:21.700,115,0.34623972,0.023050126,0.36794829999999995,0.21090122666666666,-2.1864394333333332,0.49276461000000005
2026-05-10 11:32:21.710,116,0.34623972,0.023050126,0.3679483,0.23808473,-2.2634084,0.51923543
2026-05-10 11:32:21.720,117,0.34623972,0.023050126,0.3679483,0.23808473,-2.2634084,0.51923543
2026-05-10 11:32:21.730,118,0.34623972,0.023050126,0.3679483,0.23808473,-2.2634084,0.51923543
2026-05-10 11:32:21.740,119,0.34623972,0.023050126,0.3679483,0.23808473,-2.2634084,0.51923543
2026-05-10 11:32:21.750,120,0.38357421999999997,0.015869828875000002,0.370143545,0.261068535,-2.31055955,0.49919142250000004
2026-05-10 11:32:21.760,121,0.49557772,-0.0056710625,0.37672928,0.33001995,-2.452013,0.43905939999999993
2026-05-10 11:32:21.770,122,0.49557772,-0.0056710625,0.37672928,0.33001995,-2.452013,0.4390594
2026-05-10 11:32:21.780,123,0.5099840525,-0.009771911875,0.37264368000000003,0.33001995,-2.452013,0.4390594
2026-05-10 11:32:21.790,124,0.55320305,-0.02207446,0.36038688,0.33001995,-2.452013,0.4390594
2026-05-10 11:32:21.800,125,0.55320305,-0.02207446,0.36038688,0.33001995,-2.452013,0.4390594
2026-05-10 11:32:21.810,126,0.55320305,-0.02207446,0.36038688,0.33001995,-2.452013,0.43905939999999993
2026-05-10 11:32:21.820,127,0.55320305,-0.02207446,0.36038688,0.33001995,-2.452013,0.4390594
2026-05-10 11:32:21.830,128,0.5540262499999999,-0.021434177999999998,0.31852469,0.33001995,-2.452013,0.4390594
2026-05-10 11:32:21.840,129,0.55484945,-0.020793896,0.2766625,0.33001995,-2.452013,0.4390594
2026-05-10 11:32:21.850,130,0.55484945,-0.020793896,0.2766625,0.37104971666666664,-2.5379414666666666,0.38927386666666663
2026-05-10 11:32:21.860,131,0.55484945,-0.020793896,0.2766625,0.3915646,-2.5809057,0.3643811
2026-05-10 11:32:21.870,132,0.55484945,-0.020793896,0.2766625,0.3915646,-2.5809057,0.3643811
2026-05-10 11:32:21.880,133,0.55484945,-0.020793896,0.2766625,0.3915646,-2.5809057,0.3643811
2026-05-10 11:32:21.890,134,0.55484945,-0.020793896,0.2766625,0.3915646,-2.5809057,0.3643811
2026-05-10 11:32:21.900,135,0.55484945,-0.020793896,0.2766625,0.3915646,-2.5809057,0.36438109999999996
2026-05-10 11:32:21.910,136,0.523872,-0.041526813,0.18348631,0.32589662,-2.6684122,0.32574388
2026-05-10 11:32:21.920,137,0.523872,-0.041526813,0.18348631,0.10949759,-2.724001,0.36361754
2026-05-10 11:32:21.930,138,0.523872,-0.041526813,0.18348631,0.10949759,-2.724001,0.36361754
2026-05-10 11:32:21.940,139,0.4954709775,-0.06814422075,0.12485485,0.10949759,-2.724001,0.36361754
2026-05-10 11:32:21.950,140,0.48600397,-0.07701669,0.10531103000000001,0.10949758999999999,-2.724001,0.3636175400000001
2026-05-10 11:32:21.960,141,0.48600397,-0.07701669,0.10531103,0.10949759,-2.724001,0.36361754
2026-05-10 11:32:21.970,142,0.48600397,-0.07701669,0.10531103,0.10949759,-2.724001,0.36361754
2026-05-10 11:32:21.980,143,0.48600397,-0.07701669,0.10531103,0.10949759,-2.724001,0.36361754
2026-05-10 11:32:21.990,144,0.4667040625,-0.1194581925,0.059851055,0.10949759,-2.724001,0.36361754
2026-05-10 11:32:22.000,145,0.46027076,-0.13360536,0.04469773,0.10949758999999999,-2.724001,0.3636175400000001
2026-05-10 11:32:22.010,146,0.46027076,-0.13360536,0.04469773,0.10949759,-2.724001,0.36361754
2026-05-10 11:32:22.020,147,0.46027076,-0.13360536,0.04469773,0.10949759,-2.724001,0.36361754
2026-05-10 11:32:22.030,148,0.46027076,-0.13360536,0.04469773,0.10949759,-2.724001,0.36361754
2026-05-10 11:32:22.040,149,0.46027076,-0.13360536,0.04469773,0.10949759,-2.724001,0.36361754
2026-05-10 11:32:22.050,150,0.46027076,-0.13360536,0.04469773,-0.2049453,-2.7519479,0.49098295
2026-05-10 11:32:22.060,151,0.46027076,-0.13360536,0.04469773,-0.2049453,-2.7519479,0.49098295
2026-05-10 11:32:22.070,152,0.46027076,-0.13360536,0.04469773,-0.2049453,-2.7519479,0.49098295
2026-05-10 11:32:22.080,153,0.46027076,-0.13360536,0.04469773,-0.4001167275,-2.78493455,0.5890268125
2026-05-10 11:32:22.090,154,0.46027076,-0.13360536,0.04469773,-0.46517386999999993,-2.7959301,0.6217081
2026-05-10 11:32:22.100,155,0.46027076,-0.13360536,0.04469773,-0.46517387,-2.7959301,0.6217081
2026-05-10 11:32:22.110,156,0.46027076,-0.13360536,0.04469773,-0.46517387,-2.7959301,0.6217081
2026-05-10 11:32:22.120,157,0.46392950499999996,-0.15217352,0.0463746575,-0.46517387,-2.7959301,0.6217081
2026-05-10 11:32:22.130,158,0.47982474999999997,-0.24928284,0.126104915,-0.70951999,-3.0665435,0.8866200333333335
2026-05-10 11:32:22.140,159,0.485943,-0.28855342,0.16513158,-0.833907425,-3.3027193500000003,1.0962741
2026-05-10 11:32:22.150,160,0.485943,-0.28855342,0.16513158,-0.8361218,-3.4035885,1.1734722
2026-05-10 11:32:22.160,161,0.485943,-0.28855342,0.16513158,-0.8361218,-3.4035885,1.1734722
2026-05-10 11:32:22.170,162,0.485943,-0.28855342,0.16513158,-0.8361218,-3.4035885,1.1734722
2026-05-10 11:32:22.180,163,0.485943,-0.28855342,0.16513158,-0.8361218,-3.4035885,1.1734722
2026-05-10 11:32:22.190,164,0.485943,-0.28855342,0.16513158,-0.8361218,-3.4035885,1.1734722
2026-05-10 11:32:22.200,165,0.485943,-0.28855342,0.16513158,-0.8361218,-3.4035885,1.1734722
2026-05-10 11:32:22.210,166,0.485943,-0.28855342,0.16513158,-0.8361218,-3.4035885,1.1734722
2026-05-10 11:32:22.220,167,0.485943,-0.28855342,0.16513158,-0.8361218,-3.4035885,1.1734722
2026-05-10 11:32:22.230,168,0.54352256,-0.34663608,0.23275748,-0.8361218,-3.4035885,1.1734722
2026-05-10 11:32:22.240,169,0.5950347,-0.3881324,0.27580878,-0.8361218,-3.4035885,1.1734722
2026-05-10 11:32:22.250,170,0.5950347,-0.3881324,0.27580878,-0.800042575,-3.5198819500000003,1.28705495
2026-05-10 11:32:22.260,171,0.5950347,-0.3881324,0.27580878,-0.6918049,-3.8687623,1.6278032
2026-05-10 11:32:22.270,172,0.5950347,-0.3881324,0.27580878,-0.6918048999999998,-3.8687623,1.6278032
2026-05-10 11:32:22.280,173,0.61029475,-0.402127125,0.27352206,-0.6807711375,-3.8804451,1.68533905
2026-05-10 11:32:22.290,174,0.7369637625000001,-0.45623091,0.26597588250000004,-0.6521368025000001,-3.8810941750000003,1.91479525
2026-05-10 11:32:22.300,175,0.97963035,-0.49258974,0.26391783,-0.66553766,-3.7778962,2.0853412
2026-05-10 11:32:22.310,176,0.97963035,-0.49258973999999994,0.26391783,-0.66553766,-3.7778961999999994,2.0853412
2026-05-10 11:32:22.320,177,0.78937536,-0.48941877,0.26269826,-0.68997228,-3.6394588,2.1587977499999997
2026-05-10 11:32:22.330,178,0.78937536,-0.48941877,0.26269826,-0.7144069,-3.5010214,2.2322543
2026-05-10 11:32:22.340,179,0.8488910199999999,-0.49172074,0.26852177,-0.7199046849999999,-3.469370975,2.230154475
2026-05-10 11:32:22.350,180,0.968715,-0.5350922,0.36892396,-0.6960809,-3.2343788,2.3154848
2026-05-10 11:32:22.360,181,0.959171775,-0.536769125,0.376912235,-0.6960809,-3.2343788,2.3154848
2026-05-10 11:32:22.370,182,0.9305421,-0.5417999,0.40087706,-0.5311473,-3.249345,2.6484063
2026-05-10 11:32:22.380,183,0.9305421,-0.5417999,0.40087706,-0.5311473,-3.249345,2.6484063
2026-05-10 11:32:22.390,184,0.837366,-0.5511297,0.3995355,-0.5311473,-3.249345,2.6484063
2026-05-10 11:32:22.400,185,0.8908853666666667,-0.5585691533333333,0.32733616666666665,-0.6446664333333333,-3.1808263333333335,2.9008973
2026-05-10 11:32:22.410,186,1.2385479,-0.5163106,0.15824094,-1.2220359,-2.9115365,3.5520287
2026-05-10 11:32:22.420,187,1.2385479,-0.5163106,0.15824094,-1.3202706750000002,-2.885460175,3.56470415
2026-05-10 11:32:22.430,188,1.2385479,-0.5163106,0.15824094,-1.614975,-2.8072312,3.6027305
2026-05-10 11:32:22.440,189,1.2385479,-0.5163106,0.15824094,-1.614975,-2.8072312,3.6027305
2026-05-10 11:32:22.450,190,1.2385479,-0.5163106,0.15824094,-1.614975,-2.8072312,3.6027305
2026-05-10 11:32:22.460,191,1.3785408,-0.477665065,0.2412030975,-1.84015525,-2.8002063,3.52140905
2026-05-10 11:32:22.470,192,1.4252051,-0.46478322,0.26885715,-2.0653355,-2.7931814,3.4400876
2026-05-10 11:32:22.480,193,1.5269793,-0.44472107,0.32562876,-2.1041253,-2.8469374,3.1257974999999996
2026-05-10 11:32:22.490,194,1.5269793,-0.44472107,0.32562876,-2.1041253,-2.8469374,3.1257975
2026-05-10 11:32:22.500,195,1.562194875,-0.400678865,0.4434405,-2.1041253,-2.8469374,3.1257975
2026-05-10 11:32:22.510,196,1.5739334,-0.38599813,0.48271108,-2.1041253,-2.8469374,3.1257975
2026-05-10 11:32:22.520,197,1.5787304,-0.5594431866666667,0.34270291500000005,-1.68481722,-1.1304060333333332,4.5634179
2026-05-10 11:32:22.530,198,1.5835274000000001,-0.7328882433333334,0.20269475000000003,-1.2655091399999998,0.5861253333333334,6.0010383
2026-05-10 11:32:22.540,199,1.5883244,-0.9063333,0.062686585,-0.84620106,2.3026567,7.4386587
2026-05-10 11:32:22.550,200,1.5883244,-0.9063333,0.062686585,-0.84620106,2.3026567,7.4386587
2026-05-10 11:32:22.560,201,1.4275426,-0.8364919000000001,0.077016692,-0.84620106,2.3026567,7.4386587
2026-05-10 11:32:22.570,202,1.34369115,-0.8507966100000001,0.12026616500000001,-1.2608259,2.77958965,7.7476038
2026-05-10 11:32:22.580,203,1.4353479666666669,-0.8143768066666667,0.085187894,-1.3622295,2.8266262999999996,7.852672600000001
2026-05-10 11:32:22.590,204,1.6316196500000002,-0.7208957300000001,-0.0166168235,-1.4424055500000001,2.77577175,7.909788600000001
2026-05-10 11:32:22.600,205,1.9078553,-0.5505809,-0.18043736,-1.5225816,2.7249172,7.9669046
2026-05-10 11:32:22.610,206,2.134148975,-0.380860625,-0.283522655,-1.85519775,2.2765039,7.920058925
2026-05-10 11:32:22.620,207,2.2095802,-0.3242872,-0.31788442,-2.112575666666667,1.9781852999999998,7.8031419
2026-05-10 11:32:22.630,208,2.2095802,-0.3242872,-0.31788442,-2.4055874,1.6804903,7.6005383
2026-05-10 11:32:22.640,209,2.2095802,-0.3242872,-0.31788442,-2.4055874,1.6804903,7.6005383
2026-05-10 11:32:22.650,210,2.4161370000000004,-0.14309777333333332,-0.34125974,-2.4055874,1.6804903,7.6005383
2026-05-10 11:32:22.660,211,2.5194154,-0.05250306,-0.3529474,-2.4055874,1.6804903,7.6005383
2026-05-10 11:32:22.670,212,2.5194154,-0.05250306,-0.3529474,-2.74438855,1.4241559499999998,7.23783685
2026-05-10 11:32:22.680,213,2.5194154,-0.05250306,-0.3529474,-3.30333015,1.03304947,6.5293095
2026-05-10 11:32:22.690,214,2.4756627499999997,0.24060856249999998,0.0960879225,-3.63399915,0.86551971,5.6842156500000005
2026-05-10 11:32:22.700,215,2.4453256,0.27965048,0.17787623,-3.670842,0.8546005,5.517793
2026-05-10 11:32:22.710,216,2.4453256,0.27965048,0.17787623,-3.670842,0.8546005,5.517793
2026-05-10 11:32:22.720,217,2.4453256,0.27965048,0.17787623,-3.670842,0.8546005,5.517793
2026-05-10 11:32:22.730,218,2.4453256,0.27965048,0.17787623,-3.670842,0.8546005,5.517793
2026-05-10 11:32:22.740,219,2.23939895,0.40063313999999994,0.359716115,-3.15259915,1.00388065,5.218927300000001
2026-05-10 11:32:22.750,220,1.98441455,0.56247185,0.5426841075000001,-2.6343563,1.1531608,4.9200616
2026-05-10 11:32:22.760,221,1.91595015,0.74687286,0.46937188500000004,-2.6343563,1.1531608,4.9200616
2026-05-10 11:32:22.770,222,2.9271624999999997,1.15299408,-0.04069343,-2.4064017,0.8672759133333333,4.664414266666667
2026-05-10 11:32:22.780,223,3.3147054,1.2633054,-0.18068127,-2.2924244,0.72433347,4.5365906
2026-05-10 11:32:22.790,224,3.3147054,1.2633054,-0.18068127,-2.2924244,0.72433347,4.5365906
2026-05-10 11:32:22.800,225,3.3147054,1.2633054,-0.18068127,-2.2924244,0.72433347,4.5365906
2026-05-10 11:32:22.810,226,3.11630985,1.1964874499999998,0.014787449999999997,-2.824297275,-0.764116095,1.591723945
2026-05-10 11:32:22.820,227,3.0501780000000003,1.1742148,0.07994369,-2.9597947999999996,-1.1119275,0.84879726
2026-05-10 11:32:22.830,228,2.4406302,0.91743153,0.36410663,-3.2322407,-1.02717,0.052687127
2026-05-10 11:32:22.840,229,2.4406302,0.91743153,0.36410663,-3.2322407,-1.02717,0.052687127
2026-05-10 11:32:22.850,230,2.4406302,0.91743153,0.36410663,-3.2322407,-1.02717,0.052687127
2026-05-10 11:32:22.860,231,2.4406302,0.91743153,0.36410663,-3.2322407,-1.02717,0.052687127
2026-05-10 11:32:22.870,232,2.4406302,0.91743153,0.36410663,-3.2322407,-1.02717,0.052687127
2026-05-10 11:32:22.880,233,2.4406302,0.91743153,0.36410663,-3.2322407,-1.02717,0.052687127
2026-05-10 11:32:22.890,234,2.1041776,0.801464435,0.5716797125,-3.329521,-0.6073528,-0.037110064
2026-05-10 11:32:22.900,235,2.0874388,0.7923633,0.58972955,-3.329521,-0.6073528,-0.037110064
2026-05-10 11:32:22.910,236,2.1686326,0.7971959,0.6052792375,-3.35533,-0.25534168,0.07513642
2026-05-10 11:32:22.920,237,2.412214,0.8116937,0.6519283,-3.35533,-0.25534168,0.07513642
2026-05-10 11:32:22.930,238,2.412214,0.8116937,0.6519283,-3.3155475,0.05528331,0.24602597999999998
2026-05-10 11:32:22.940,239,2.412214,0.8116936999999999,0.6519283,-3.275765,0.3659083,0.41691554
2026-05-10 11:32:22.950,240,2.412214,0.8116937,0.6519283,-3.275765,0.3659083,0.41691554
2026-05-10 11:32:22.960,241,2.65881385,0.901470275,0.67904875,-3.1760029999999997,0.562797775,0.39125921
2026-05-10 11:32:22.970,242,2.7410138,0.9313958,0.6880889,-3.142749,0.6284276,0.3827071
2026-05-10 11:32:22.980,243,2.7410138,0.9313958,0.6880889,-3.142749,0.6284276,0.3827071
2026-05-10 11:32:22.990,244,2.7410138,0.9313958,0.6880889,-3.142749,0.6284276,0.3827071
2026-05-10 11:32:23.000,245,2.7410137999999997,0.9313958000000001,0.6880889,-3.142749,0.6284276,0.3827071
2026-05-10 11:32:23.010,246,2.7410138,0.9313958,0.6880889,-3.142749,0.6284276,0.3827071
2026-05-10 11:32:23.020,247,2.7410138,0.9313958,0.6880889,-3.142749,0.6284276,0.3827071
2026-05-10 11:32:23.030,248,2.7410138,0.9313958,0.6880889,-3.142749,0.6284276,0.3827071
2026-05-10 11:32:23.040,249,2.7410138,0.9313958,0.6880889,-3.142749,0.6284276,0.3827071
2026-05-10 11:32:23.050,250,3.298302166666667,1.0376825333333333,0.8560458333333333,-2.0501147,1.2277373466666666,-0.9062185966666667
2026-05-10 11:32:23.060,251,3.1229262749999998,0.874929125,0.81030645,0.6994789000000001,1.03923448,-3.0267991
2026-05-10 11:32:23.070,252,3.041946,0.8349268,0.7532757,1.2075279,0.91339624,-3.3631186
2026-05-10 11:32:23.080,253,3.041946,0.8349268,0.7532757,1.2075279,0.91339624,-3.3631186
2026-05-10 11:32:23.090,254,3.041946,0.8349268,0.7532757,1.2075279,0.91339624,-3.3631186
2026-05-10 11:32:23.100,255,2.9396838499999998,0.7820578300000001,0.6736369,1.4392748499999999,0.8509352699999999,-3.5175148
2026-05-10 11:32:23.110,256,2.6271045500000003,0.6553431000000001,0.45613943,1.78376465,0.827302425,-3.8641044
2026-05-10 11:32:23.120,257,2.1621993,0.50704175,0.17440042,1.8558086000000003,1.024421,-4.2293253
2026-05-10 11:32:23.130,258,2.1621993,0.50704175,0.17440042,1.6992744,1.3978124,-4.3461537
2026-05-10 11:32:23.140,259,2.1621993,0.50704175,0.17440042,1.6992744,1.3978124,-4.3461537
2026-05-10 11:32:23.150,260,2.1621993,0.50704175,0.17440042,1.6992744,1.3978124,-4.3461537
2026-05-10 11:32:23.160,261,2.1621993,0.50704175,0.17440042,1.6992744,1.3978124,-4.3461537
2026-05-10 11:32:23.170,262,2.1621993,0.50704175,0.17440042,1.6992744,1.3978124,-4.3461537
2026-05-10 11:32:23.180,263,2.1621993,0.50704175,0.17440042,1.6491834666666667,1.4657202666666667,-4.3674321
2026-05-10 11:32:23.190,264,2.1317097250000003,0.5082613375,0.170025165,1.624138,1.4996742,-4.3780713
2026-05-10 11:32:23.200,265,2.040241,0.5119201,0.1568994,1.624138,1.4996742,-4.3780713
2026-05-10 11:32:23.210,266,2.040241,0.5119201,0.1568994,1.624138,1.4996742,-4.3780713
2026-05-10 11:32:23.220,267,2.040241,0.5119201,0.1568994,1.624138,1.4996742,-4.3780713
2026-05-10 11:32:23.230,268,2.040241,0.5119201,0.1568994,1.624138,1.4996742,-4.3780713
2026-05-10 11:32:23.240,269,1.9917015999999998,0.5110664,0.1506185475,1.624138,1.4996742,-4.3780713
2026-05-10 11:32:23.250,270,1.7798447499999999,0.5052886425,0.12907766,1.572634425,1.5380441500000002,-4.407812825000001
2026-05-10 11:32:23.260,271,1.5811288,0.49563867,0.12098267,1.4181237,1.653154,-4.4970374
2026-05-10 11:32:23.270,272,1.5811288,0.49563867,0.12098267,1.4217888333333333,1.5836172666666668,-4.531856666666667
2026-05-10 11:32:23.280,273,1.4951024499999999,0.4796316225,0.1359378125,1.4236214,1.5488489,-4.5492663
2026-05-10 11:32:23.290,274,1.21206775,0.2166437325,0.2040667975,1.7834211,1.491771125,-5.025664900000001
2026-05-10 11:32:23.300,275,1.0219499,0.03146525,0.22653762,2.0195205,1.5509869,-5.2343516
2026-05-10 11:32:23.310,276,1.0019487375,0.0119061825,0.2259125775,2.0195205,1.5509869,-5.2343516
2026-05-10 11:32:23.320,277,0.94194525,-0.04677102,0.22403745,2.0195205,1.5509869,-5.2343516
2026-05-10 11:32:23.330,278,0.94194525,-0.04677102,0.22403745,2.07350575,1.5706873000000001,-5.241605625
2026-05-10 11:32:23.340,279,0.7452263875,-0.2456698325,0.19449305,2.51798655,1.68705715,-5.22434855
2026-05-10 11:32:23.350,280,0.6147919,-0.3706314,0.18049833,2.9059877333333333,1.7030414666666667,-5.169243266666666
2026-05-10 11:32:23.360,281,0.478244375,-0.48307697,0.1632412325,3.11694,1.6204728,-5.137071
2026-05-10 11:32:23.370,282,0.47874745999999996,-0.4911872,0.15677744,3.11694,1.6204728,-5.137071
2026-05-10 11:32:23.380,283,0.47874746,-0.4911872,0.15677744,3.9495110749999998,0.912747175,-4.932698875
2026-05-10 11:32:23.390,284,0.47874746,-0.4911872,0.15677744,4.6011896,0.062155537,-4.825835
2026-05-10 11:32:23.400,285,0.5428060800000001,-0.50893215,0.101225418,4.6011896,0.062155537,-4.825835
2026-05-10 11:32:23.410,286,0.6224347,-0.5348279666666667,-0.006057266000000001,4.6790749,-0.12105313533333333,-4.854647666666666
2026-05-10 11:32:23.420,287,0.6535747,-0.5511297,-0.10951859,4.8348455,-0.48747048,-4.912273
2026-05-10 11:32:23.430,288,0.6581481499999999,-0.54603795,-0.1324924925,4.8348455,-0.48747048,-4.912273
2026-05-10 11:32:23.440,289,0.6718685,-0.5307627,-0.2014142,4.8348455,-0.48747048,-4.912273
2026-05-10 11:32:23.450,290,0.6718685,-0.5307627,-0.2014142,4.8348455,-0.48747048,-4.912273
2026-05-10 11:32:23.460,291,0.6718685,-0.5307627,-0.2014142,4.8333187,-0.8026769,-4.980232
2026-05-10 11:32:23.470,292,0.6331162125,-0.503276335,-0.28867538249999997,4.50562765,-1.242461725,-5.08675135
2026-05-10 11:32:23.480,293,0.5028037275,-0.4969192375,-0.33500431249999996,3.9889118499999996,-1.587638825,-5.162346149999999
2026-05-10 11:32:23.490,294,0.37392426000000006,-0.50570023,-0.3077009,3.6763399,-1.6751452999999998,-5.1305046
2026-05-10 11:32:23.500,295,0.37392426,-0.50570023,-0.3077009,3.6763399,-1.6751453,-5.1305046
2026-05-10 11:32:23.510,296,0.2569814625,-0.5235366324999999,-0.2132594,3.6763399,-1.6751453,-5.1305046
2026-05-10 11:32:23.520,297,0.169583065,-0.5456416,-0.130160035,3.115221925,-1.6147841,-4.7248137
2026-05-10 11:32:23.530,298,0.08549278824999999,-0.56849355,-0.0589821014575,2.889659875,-1.54808525,-4.50200055
2026-05-10 11:32:23.540,299,-0.021525647,-0.5885709,-0.00030489583,2.7740917,-1.4083499,-4.239252
2026-05-10 11:32:23.550,300,-0.07713865,-0.5862537,0.007744354,2.7279716,-1.3399329,-4.094477
2026-05-10 11:32:23.560,301,-0.07713865,-0.5862537,0.007744354,2.7279716,-1.3399329,-4.094477
2026-05-10 11:32:23.570,302,-0.3381295,-0.5588131,-0.031709168,2.34251545,-0.91797775,-3.2974505499999998
2026-05-10 11:32:23.580,303,-0.4610025166666667,-0.5471864,-0.071426932,2.063757266666667,-0.7214318533333333,-2.9267062
2026-05-10 11:32:23.590,304,-0.7974245550000001,-0.5201828,-0.198456705,1.458059,-0.58169643,-2.3678664
2026-05-10 11:32:23.600,305,-0.90831515,-0.5129263,-0.259984685,1.044885,-0.5290093,-2.0129538
2026-05-10 11:32:23.610,306,-0.8751729699999999,-0.51597525,-0.243794715,0.5668065875,-0.5310710000000001,-1.6589573
2026-05-10 11:32:23.620,307,-0.8218162000000001,-0.5225305,-0.21367101,0.088728175,-0.5331327,-1.3049608
2026-05-10 11:32:23.630,308,-0.79771423,-0.5308999000000001,-0.17379063,-0.99147250625,-0.362815785,-0.6104070775
2026-05-10 11:32:23.640,309,-0.7809144675,-0.5516938,-0.09989912249999999,-1.6014978000000002,-0.18402314749999998,-0.2123138525
2026-05-10 11:32:23.650,310,-0.8002906,-0.6882719,0.23489174,-2.8591547,0.63087106,0.9121745
2026-05-10 11:32:23.660,311,-0.8002906,-0.6882719,0.23489174,-2.8591547,0.63087106,0.9121745
2026-05-10 11:32:23.670,312,-0.8002906,-0.6882719,0.23489174,-2.8591547,0.63087106,0.9121745
2026-05-10 11:32:23.680,313,-0.8002906,-0.6882719,0.23489174,-2.8591547,0.63087106,0.9121745
2026-05-10 11:32:23.690,314,-0.8002906,-0.6882719,0.23489174,-2.8591547,0.63087106,0.9121745
2026-05-10 11:32:23.700,315,-0.816328125,-0.7042789150000001,0.2621646725,-2.9566641000000002,0.753807695,1.23654395
2026-05-10 11:32:23.710,316,-0.8811896733333334,-0.80494532,0.43533025000000003,-3.021084966666667,0.96084011,2.3905702666666664
2026-05-10 11:32:23.720,317,-0.88956416,-0.831268,0.48100364,-3.0045407,1.002888,2.8053987
2026-05-10 11:32:23.730,318,-0.865995705,-0.85187895,0.52192067,-3.0045407,1.002888,2.8053987
2026-05-10 11:32:23.740,319,-0.84242725,-0.8724899,0.5628377,-3.0045407,1.002888,2.8053987
2026-05-10 11:32:23.750,320,-0.84242725,-0.8724899,0.5628377,-3.0045407,1.002888,2.8053987
2026-05-10 11:32:23.760,321,-0.23576581333333335,-0.9606251666666666,0.3907138423333333,-2.7748044666666667,1.2193888333333334,4.984558466666667
2026-05-10 11:32:23.770,322,0.37089562333333326,-1.0487604333333334,0.21858998466666663,-2.5450682333333337,1.4358896666666667,7.163718233333334
2026-05-10 11:32:23.780,323,0.97755706,-1.1368957,0.046466127,-2.315332,1.6523905,9.342878
2026-05-10 11:32:23.790,324,0.97755706,-1.1368957,0.046466127,-2.315332,1.6523905,9.342878
2026-05-10 11:32:23.800,325,0.97755706,-1.1368957,0.046466127,-2.315332,1.6523905,9.342878
2026-05-10 11:32:23.810,326,1.2560793399999999,-1.1593054,0.04244150025,-2.315332,1.6523905,9.342878
2026-05-10 11:32:23.820,327,1.9127945499999999,-0.9777704250000001,0.196718794,-3.1448106,1.900096375,8.69123785
2026-05-10 11:32:23.830,328,2.476669,-0.78876555,0.35233763,-3.6526687,1.9425514999999998,7.8305286999999995
2026-05-10 11:32:23.840,329,2.476669,-0.78876555,0.35233763,-3.6526687,1.9425515,7.8305287
2026-05-10 11:32:23.850,330,2.469686875,-0.7427567625,0.3681159925,-3.6526687,1.9425515,7.8305287
2026-05-10 11:32:23.860,331,2.4487405,-0.6047304,0.41545108,-3.6010505999999998,1.84824915,7.486917
2026-05-10 11:32:23.870,332,2.2783241666666663,-0.46086022666666665,0.47655216,-3.5494325,1.7539468000000003,7.143305299999999
2026-05-10 11:32:23.880,333,2.193116,-0.38892514,0.5071027,-3.5494325,1.7539468,7.1433053
2026-05-10 11:32:23.890,334,2.193116,-0.38892514,0.5071027,-3.5494325,1.7539468,7.1433053
2026-05-10 11:32:23.900,335,2.193116,-0.38892514,0.5071027,-3.5494325,1.7539468,7.1433053
2026-05-10 11:32:23.910,336,1.947004,-0.31739658,0.55984974,-3.156188,1.2831224,5.9421916
2026-05-10 11:32:23.920,337,1.947004,-0.31739658,0.55984974,-3.0294333333333334,1.0687087333333334,5.636758933333334
2026-05-10 11:32:23.930,338,1.947004,-0.31739658,0.55984974,-2.966056,0.9615019,5.4840425999999995
2026-05-10 11:32:23.940,339,1.947004,-0.31739658,0.55984974,-2.966056,0.9615019,5.4840426
2026-05-10 11:32:23.950,340,1.947004,-0.31739658,0.55984974,-2.966056,0.9615019,5.4840425999999995
2026-05-10 11:32:23.960,341,1.805699975,-0.31245725999999996,0.57732028,-2.7922267,0.8109236175,5.391267450000001
2026-05-10 11:32:23.970,342,1.1763492,-0.33014122,0.6336955,-2.2707388,0.35918877,5.112942
2026-05-10 11:32:23.980,343,1.1763492,-0.33014122,0.6336955,-1.9142226,0.061239245,5.20640435
2026-05-10 11:32:23.990,344,1.1763492,-0.33014122,0.6336955,-1.5577064,-0.23671028,5.2998667
2026-05-10 11:32:24.000,345,1.2048671,-0.32636050666666666,0.6146699999999999,-1.5577064,-0.23671027999999997,5.2998667
2026-05-10 11:32:24.010,346,1.3706287499999998,-0.28516908,0.49292511,-1.235016815,-0.48098002500000003,5.4549501
2026-05-10 11:32:24.020,347,1.891741475,0.111408955,0.039727925000000025,0.3146719475,-2.0457877250000003,5.89362785
2026-05-10 11:32:24.030,348,2.2212882,0.5332019,-0.283919,0.22612194,-2.4036021,5.6854754666666665
2026-05-10 11:32:24.040,349,2.2212882,0.5332019,-0.283919,0.07269296,-2.3522894,5.629734
2026-05-10 11:32:24.050,350,2.2212882,0.5332019,-0.283919,0.07269296,-2.3522894,5.629734
2026-05-10 11:32:24.060,351,2.2212882,0.5332019,-0.283919,0.07269296,-2.3522894,5.629734
2026-05-10 11:32:24.070,352,2.2212882,0.5332019,-0.283919,0.07269296,-2.3522894,5.629734
2026-05-10 11:32:24.080,353,2.4378252,0.78657025,-0.29013887,-0.14441873666666666,-2.1861849333333336,5.567120333333333
2026-05-10 11:32:24.090,354,2.4378252,0.78657025,-0.29013887,-0.57864213,-1.853976,5.441893
2026-05-10 11:32:24.100,355,2.5328307249999997,0.8499733375,-0.240410361,-0.57864213,-1.853976,5.441893
2026-05-10 11:32:24.110,356,2.8178473,1.0401826,-0.091224834,-1.4193454,-1.1357512,4.84294
2026-05-10 11:32:24.120,357,3.1124987999999996,1.23245,0.12708059,-1.9472857,-0.52519137,4.1631994
2026-05-10 11:32:24.130,358,3.1124988,1.23245,0.12708059,-2.0328068,-0.35819609500000005,3.7143661999999997
2026-05-10 11:32:24.140,359,3.2949483,1.3764218,0.32440916,-2.1183279,-0.19120082,3.265533
2026-05-10 11:32:24.150,360,3.2949483,1.3764218,0.32440916,-2.1183279,-0.19120082,3.265533
2026-05-10 11:32:24.160,361,3.27726445,1.40681995,0.36532619499999996,-2.1155026,-0.1071304915,2.55196595
2026-05-10 11:32:24.170,362,3.2595806,1.4372181,0.40624323,-2.1126773,-0.023060163000000005,1.8383989000000003
2026-05-10 11:32:24.180,363,2.9396837749999998,1.2871178250000002,0.46176476,-2.014939,-0.20670152000000003,0.32986724500000003
2026-05-10 11:32:24.190,364,2.8448,1.1879961,0.47008842,-2.0065396,-0.27000242,-0.0926988
2026-05-10 11:32:24.200,365,2.9054134,1.1195166,0.6508306,-2.123215,-0.025809057,-0.4540256
2026-05-10 11:32:24.210,366,2.9054134,1.1195166,0.6508306,-2.123215,-0.025809057,-0.4540256
2026-05-10 11:32:24.220,367,2.9054134,1.1195166,0.6508306,-2.1407773,0.35140023,-0.7640397
2026-05-10 11:32:24.230,368,2.9054134,1.1195166,0.6508306,-2.1407773,0.35140023,-0.7640397
2026-05-10 11:32:24.240,369,3.1023001,1.1368956000000001,0.82288333,-2.1407773,0.35140023,-0.7640397
2026-05-10 11:32:24.250,370,3.1679289999999996,1.1426886,0.88023424,-2.1407773,0.35140023000000004,-0.7640397
2026-05-10 11:32:24.260,371,3.167929,1.1426886,0.88023424,-1.7774651,0.7228063,-1.2533427
2026-05-10 11:32:24.270,372,3.167929,1.1426886,0.88023424,-1.7774651,0.7228063,-1.2533427
2026-05-10 11:32:24.280,373,3.167929,1.1426886,0.88023424,-1.6563229,0.7625888925,-1.3734922749999998
2026-05-10 11:32:24.290,374,3.2711259,1.146449,0.9082440533333332,-1.2928963,0.88193667,-1.733941
2026-05-10 11:32:24.300,375,3.3322675,1.1460425,0.90523577,-1.2928963,0.88193667,-1.733941
2026-05-10 11:32:24.310,376,3.3322675,1.1460425,0.90523577,-0.8707120749999999,0.9425268675,-2.156468875
2026-05-10 11:32:24.320,377,3.3322675,1.1460425,0.90523577,-0.729984,0.9627236,-2.2973115
2026-05-10 11:32:24.330,378,3.1600319,1.09893605,0.800229635,-0.2257529015,0.90373695,-2.80119895
2026-05-10 11:32:24.340,379,2.9877963,1.0518296,0.6952235,0.6047566,0.7657196,-3.6344955
2026-05-10 11:32:24.350,380,2.698755,0.9254808,0.58570486,0.8064439333333334,0.7199046666666667,-3.7965783
2026-05-10 11:32:24.360,381,2.647349575,0.9046564075,0.5591484449999999,0.9695195,0.68195465,-3.9032378999999997
2026-05-10 11:32:24.370,382,2.431026025,0.8246212449999999,0.428805525,1.2164618,0.600518675,-3.9778017
2026-05-10 11:32:24.380,383,2.4103236,0.81876725,0.4119143,1.236544,0.5884159,-3.9770381
2026-05-10 11:32:24.390,384,2.3911152,0.8061446,0.28910223,1.251662875,0.520724425,-3.9474875000000003
2026-05-10 11:32:24.400,385,2.3911152,0.8061446,0.28910223,1.2567025,0.4981606,-3.9376373
2026-05-10 11:32:24.410,386,2.3911152,0.8061446,0.28910223,1.2567025,0.4981606,-3.9376373
2026-05-10 11:32:24.420,387,2.4785287499999997,0.7952598049999999,0.156503035,1.1097895,0.4334089,-4.088216
2026-05-10 11:32:24.430,388,2.404896433333333,0.7596378399999999,0.10661190666666666,0.9653198333333334,0.47041715,-4.235332666666667
2026-05-10 11:32:24.440,389,2.234749325,0.706047325,0.07861739100000001,0.6113997200000001,0.5852852625,-4.5580093999999995
2026-05-10 11:32:24.450,390,2.1007934,0.6669901,0.085980624,0.17272215,0.92485,-4.722599
2026-05-10 11:32:24.460,391,2.1007934,0.6669901,0.085980624,0.17272215,0.9248499999999998,-4.722599
2026-05-10 11:32:24.470,392,2.1007934,0.6669901,0.085980624,0.17272215,0.92485,-4.722599
2026-05-10 11:32:24.480,393,1.9644592,0.610081325,0.13714215200000002,0.1334740575,0.99395415,-4.7572658
2026-05-10 11:32:24.490,394,1.7472972,0.5187498,0.22976951,0.094225965,1.0630583,-4.7919326
2026-05-10 11:32:24.500,395,1.7472972,0.5187498,0.22976951,0.09422596499999998,1.0630583,-4.7919326
2026-05-10 11:32:24.510,396,1.7472972,0.5187498,0.22976951,0.094225965,1.0630583,-4.7919326
2026-05-10 11:32:24.520,397,1.7174936,0.4985352,0.24711808750000003,0.094225965,1.0630583,-4.7919326
2026-05-10 11:32:24.530,398,1.6280828,0.4378914,0.29916382,0.1404226475,1.10207725,-4.8288898
2026-05-10 11:32:24.540,399,1.6280828,0.4378914,0.29916382,0.18661933,1.1410962,-4.865847
2026-05-10 11:32:24.550,400,1.6280828000000003,0.4378914,0.29916382,0.18661933,1.1410962,-4.865847
2026-05-10 11:32:24.560,401,1.6280828,0.4378914,0.29916382,0.18661933,1.1410962,-4.865847
2026-05-10 11:32:24.570,402,1.6280828,0.4378914,0.29916382,0.18661933,1.1410962,-4.865847
2026-05-10 11:32:24.580,403,1.4057375250000002,0.294575115,0.37168328500000003,0.5785275624999999,1.17771,-4.960607625
2026-05-10 11:32:24.590,404,1.2844652,0.21476863,0.40288937,0.8390234,1.1888965,-5.0132184
2026-05-10 11:32:24.600,405,1.2326125666666667,0.16677802666666666,0.3932953066666667,0.9586002666666666,1.1753556666666667,-5.020956033333333
2026-05-10 11:32:24.610,406,1.1289073,0.07079682,0.37410718,1.197754,1.148274,-5.0364313
2026-05-10 11:32:24.620,407,1.1289073,0.07079682,0.37410718,1.197754,1.148274,-5.0364313
2026-05-10 11:32:24.630,408,1.1289073,0.07079682,0.37410718,1.197754,1.148274,-5.0364313
2026-05-10 11:32:24.640,409,1.1289073,0.07079682,0.37410718,1.3809372,1.1229993999999999,-5.03093335
2026-05-10 11:32:24.650,410,1.0367983,-0.014177653500000003,0.355630495,1.8823812000000002,1.04335782,-4.968014200000001
2026-05-10 11:32:24.660,411,0.8359634,-0.20982932,0.3050178,2.200642,0.98899084,-4.910593
2026-05-10 11:32:24.670,412,0.7868955333333334,-0.2780853266666667,0.28741516,2.200642,0.98899084,-4.910593
2026-05-10 11:32:24.680,413,0.7623616,-0.31221333,0.27861384,2.200642,0.98899084,-4.910593
2026-05-10 11:32:24.690,414,0.7623616,-0.31221333,0.27861384,2.4637723,0.9147707,-4.809342
2026-05-10 11:32:24.700,415,0.75955653,-0.4243082875,0.25931391249999997,2.916118,0.8006916,-4.626999
2026-05-10 11:32:24.710,416,0.76248354,-0.4678931499999999,0.25922245,2.9161179999999995,0.8006916,-4.626999
2026-05-10 11:32:24.720,417,0.76248354,-0.46789315,0.25922245,3.13305145,0.720171975,-4.58336025
2026-05-10 11:32:24.730,418,0.76018158,-0.48609543749999995,0.259283425,3.5000286999999997,0.493121005,-4.5469755
2026-05-10 11:32:24.740,419,0.3906020866666667,-0.6789623583333333,0.29977359333333337,3.0292298,0.11850788666666673,-4.571664566666667
2026-05-10 11:32:24.750,420,0.02102259333333334,-0.8718292791666666,0.34026376166666666,2.5584309,-0.25610523166666654,-4.596353633333334
2026-05-10 11:32:24.760,421,-0.3485569,-1.0646962,0.38075393,2.087632,-0.63071835,-4.6210427
2026-05-10 11:32:24.770,422,-0.3485569,-1.0646962,0.38075393,2.087632,-0.63071835,-4.6210427
2026-05-10 11:32:24.780,423,-0.6107673,-0.9692639,0.43350092,1.753603225,1.30755705,-2.8966849249999997
2026-05-10 11:32:24.790,424,-0.6107673,-0.9692639,0.43350092,1.7631097999999998,1.4654657,-2.7849348
2026-05-10 11:32:24.800,425,-0.77547204,-0.95139694,0.32971436,2.3328943,1.278541,-1.5703819
2026-05-10 11:32:24.810,426,-0.77547204,-0.95139694,0.32971436,2.3328943,1.278541,-1.5703819
2026-05-10 11:32:24.820,427,-0.8294386,-0.9010892,0.0,2.3328943,1.278541,-1.5703819
2026-05-10 11:32:24.830,428,-0.8240317999999999,-0.8595420666666667,-0.23777810666666666,2.3328943,1.278541,-1.5703819
2026-05-10 11:32:24.840,429,-0.8213284,-0.8387685,-0.35666716,2.2021692,0.63423085,-1.0598512
2026-05-10 11:32:24.850,430,-1.00745207,-0.7592821,-0.482543425,1.4157565550000002,0.44600798750000004,-0.53152913
2026-05-10 11:32:24.860,431,-1.3078811,-0.7743745,-0.3501424,0.32589662,0.5056437,0.2434298
2026-05-10 11:32:24.870,432,-1.5347238,-0.81797457,-0.15055756,0.32589662,0.5056437,0.2434298
2026-05-10 11:32:24.880,433,-1.5347238,-0.81797457,-0.15055756,0.32589662,0.5056437,0.2434298
2026-05-10 11:32:24.890,434,-1.329330675,-0.9025374225,-0.010518904000000004,-0.32501849,0.49506808999999996,3.6819902250000003
2026-05-10 11:32:24.900,435,-1.2608663,-0.93072504,0.036160648,-0.3286455,0.46563202,4.0828705
2026-05-10 11:32:24.910,436,0.01676920000000004,-0.9063638700000001,-0.123238891,-1.4478651999999999,1.0384709349999999,5.795469375
2026-05-10 11:32:24.920,437,1.2944047,-0.8820027,-0.28263843,-2.8728993,1.5708399999999998,7.566329499999999
2026-05-10 11:32:24.930,438,0.26053343,-0.93511555,-0.1272025375,-2.02604914,1.10921674,6.65472775
2026-05-10 11:32:24.940,439,0.21126231999999998,-0.95755585,-0.13950509125,-0.45112398,0.7800749,5.932876
2026-05-10 11:32:24.950,440,0.6515624,-0.93956697,-0.21184163,-0.45112398,0.7800749,5.932876
2026-05-10 11:32:24.960,441,0.6515624,-0.93956697,-0.21184163,-0.9896017266666668,1.2811880333333334,6.763652666666666
2026-05-10 11:32:24.970,442,0.6515624,-0.93956697,-0.21184163,-1.2588406,1.5317446,7.179041
2026-05-10 11:32:24.980,443,1.0114462249999998,-0.91230933,-0.260914595,-1.912161,1.6636915,7.391775
2026-05-10 11:32:24.990,444,1.1314075,-0.90322345,-0.27727225,-1.912161,1.6636914999999999,7.391775
2026-05-10 11:32:25.000,445,1.490117425,-0.848372675,-0.22380880000000003,-1.912161,1.6636915,7.391775
2026-05-10 11:32:25.010,446,1.44724905,-0.88977755,-0.1335443815,-4.113261,1.5543466,7.874053
2026-05-10 11:32:25.020,447,1.4013622,-0.96261716,0.108055085,-4.5564437,1.5754215,8.226828
2026-05-10 11:32:25.030,448,1.4345196249999999,-0.956092395,0.11976308375,-4.5564437,1.5754215,8.226828
2026-05-10 11:32:25.040,449,1.5339919,-0.9365181,0.15488708,-4.5564437,1.5754215,8.226828
2026-05-10 11:32:25.050,450,1.7949624666666668,-0.8655789866666668,0.17608750333333334,-4.9582405,1.4624114,8.413447
2026-05-10 11:32:25.060,451,2.4976152999999996,-0.61768848,0.237269945,-4.948466625,1.3880003749999998,8.21881
2026-05-10 11:32:25.070,452,2.678327,-0.5116762,0.25605154,-4.919145,1.1647673,7.634899
2026-05-10 11:32:25.080,453,2.703104833333333,-0.4487050533333334,0.28227257666666666,-4.861214666666666,1.0138326666666668,7.3507958
2026-05-10 11:32:25.090,454,2.7526605,-0.32276276,0.33471465,-4.252958525,0.0982729375,5.88152485
2026-05-10 11:32:25.100,455,2.63308035,-0.23638575499999998,0.44011715,-4.0888267,-0.10629055,5.58117
2026-05-10 11:32:25.110,456,1.621344625,-0.0203365525,0.6898573450000001,-3.1989486,-0.91354895,5.0498705
2026-05-10 11:32:25.120,457,1.1361028,0.056039855,0.6530869,-2.637028875,-1.3790282375,5.26302425
2026-05-10 11:32:25.130,458,1.7450001000000002,0.3001394683333333,0.34780485333333333,-2.0465513,-1.7630588666666667,6.531880233333333
2026-05-10 11:32:25.140,459,2.9172432,0.6510136,0.06390616,-1.8449658,-1.8774943,7.1307826
2026-05-10 11:32:25.150,460,3.729668775,1.1763643750000001,0.1277056225,-2.6531787,-0.8424976975,5.9974368
2026-05-10 11:32:25.160,461,3.740812775,1.4091981,0.37849768250000004,-3.0069841750000004,-0.5867360475000001,2.7122034499999996
2026-05-10 11:32:25.170,462,2.7800605333333333,1.5945849666666667,1.1691128666666668,-2.078825313333333,-0.9311622333333333,1.8936312666666666
2026-05-10 11:32:25.180,463,2.482583725,1.6322751500000001,1.188727835,-0.16294832000000004,-1.5419002499999999,1.20283181
2026-05-10 11:32:25.190,464,3.146784225,1.70122725,0.2190219275,0.06192647499999998,-0.8955666050000001,-0.16184110175000002
2026-05-10 11:32:25.200,465,3.3330603,1.747236,0.21696389000000002,-0.3391829,-0.24740042000000004,-0.6931793
2026-05-10 11:32:25.210,466,3.3330603,1.747236,0.21696389,-0.3391829,-0.24740042,-0.6931793
2026-05-10 11:32:25.220,467,3.3375726,1.6812565,0.17153439,-0.6808093,0.39064834,-1.5935947
2026-05-10 11:32:25.230,468,3.142033,1.5716973666666665,0.21509385,-0.806953,0.6074036733333333,-2.191580966666667
2026-05-10 11:32:25.240,469,2.9782836,1.4975873,0.28794363,-0.8258898,0.6976081,-2.5415049
2026-05-10 11:32:25.250,470,2.9782836,1.4975873,0.28794363,-0.8258898,0.6976081,-2.5415049
2026-05-10 11:32:25.260,471,2.9782836,1.4975873,0.28794363,-0.8258898,0.6976081,-2.5415049
2026-05-10 11:32:25.270,472,2.9782835999999997,1.4975873,0.28794363,-0.7181738933333334,0.6649267999999999,-2.7326039000000004
2026-05-10 11:32:25.280,473,2.9199265,1.46575625,0.317091675,-0.66431594,0.64858615,-2.8281534
2026-05-10 11:32:25.290,474,2.8615694,1.4339252,0.34623972,-0.66431594,0.64858615,-2.8281534
2026-05-10 11:32:25.300,475,2.8615694,1.4339252,0.34623972,-0.66431594,0.64858615,-2.8281534
2026-05-10 11:32:25.310,476,2.7806298,1.3470095333333336,0.3284744533333333,-0.46415578,0.5040147300000001,-3.0408362666666666
2026-05-10 11:32:25.320,477,2.748636,1.1956185,0.26623505,-0.25702155,0.3051272,-3.33059
2026-05-10 11:32:25.330,478,2.64362985,1.118922,0.2681558975,-0.2516382975,0.28095983,-3.54889805
2026-05-10 11:32:25.340,479,2.6086278,1.0933565,0.26879618,-0.27774006,0.29133181,-3.7280597000000006
2026-05-10 11:32:25.350,480,2.4983165,1.0499393,0.30184686,-0.33353242,0.32818735,-3.9408443
2026-05-10 11:32:25.360,481,2.35686005,0.9708645875,0.40077032999999995,-0.4330652825,0.6510678249999999,-4.31488485
2026-05-10 11:32:25.370,482,2.2386824499999998,0.896988285,0.45267887,-0.40653083,0.82741696,-4.4866524
2026-05-10 11:32:25.380,483,2.2150073,0.88114893,0.45899022,-0.40653083000000007,0.82741696,-4.4866524
2026-05-10 11:32:25.390,484,2.2150073,0.88114893,0.45899022,-0.40653083,0.82741696,-4.4866524
2026-05-10 11:32:25.400,485,2.2150073,0.88114893,0.45899022,-0.40653083,0.82741696,-4.4866524
2026-05-10 11:32:25.410,486,2.0774841,0.8164652825000001,0.491629305,-0.085826565,1.2114221500000002,-4.78276945
2026-05-10 11:32:25.420,487,1.9013915,0.71220618,0.54612945,0.14019357,1.3907875,-4.9243374
2026-05-10 11:32:25.430,488,1.5447853,0.42270762,0.52830318,0.8518006866666666,1.5006923333333333,-5.0684508
2026-05-10 11:32:25.440,489,1.4730128,0.35739893,0.48484537,1.3252722,1.5630515,-5.1692944
2026-05-10 11:32:25.450,490,1.4730128,0.35739893,0.48484537,1.3252722,1.5630515,-5.1692944
2026-05-10 11:32:25.460,491,1.3830075,0.275138,0.38441268,1.5653422,1.6007724,-5.2036557
2026-05-10 11:32:25.470,492,1.3830075,0.275138,0.38441268,1.5653422,1.6007724,-5.2036557
2026-05-10 11:32:25.480,493,1.305411525,0.2326507675,0.3466208425,1.75482495,1.707711975,-5.211215125
2026-05-10 11:32:25.490,494,0.9819323225000001,0.067915551125,0.213457585,1.9380845,1.762880775,-5.130504575
2026-05-10 11:32:25.500,495,0.87767315,0.00018293750000000002,0.15726528,2.0680842,1.592373,-5.0045137
2026-05-10 11:32:25.510,496,0.900022025,-0.06674170125000001,0.1055549425,1.9940167999999998,1.5435037500000002,-4.95480435
2026-05-10 11:32:25.520,497,0.938118775,-0.15476513,0.05203047525,1.87211105,1.531171875,-4.887990875
2026-05-10 11:32:25.530,498,0.9853624,-0.2180615,0.046588086,1.728596,1.640784,-4.8366785
2026-05-10 11:32:25.540,499,1.0563879250000001,-0.3938187275,0.0854165715,1.458746225,1.8013653,-5.062087625
2026-05-10 11:32:25.550,500,1.01001822,-0.6456271266666667,0.10281087666666666,1.3743959,1.8376354,-5.1476087999999995
2026-05-10 11:32:25.560,501,0.97627646,-0.7532757,0.08256579,1.3855951,1.8031214,-5.1683784
2026-05-10 11:32:25.570,502,0.97507212,-0.7635201875,0.080096135,1.3854424,1.795180175,-5.1681493
2026-05-10 11:32:25.580,503,0.9714591,-0.79425365,0.07268717,1.3849843,1.7713565000000002,-5.167462
2026-05-10 11:32:25.590,504,0.93090797,-0.8938326249999999,0.114122515,1.3849843,1.7713565,-5.167462
2026-05-10 11:32:25.600,505,0.6993701,-1.0785995,0.26074693,1.964848,1.5406022,-5.150663
2026-05-10 11:32:25.610,506,0.6993701,-1.0785995,0.26074693,1.964848,1.5406022,-5.150663
2026-05-10 11:32:25.620,507,0.6993701,-1.0785995,0.26074693,2.2802072,1.4732542000000002,-5.134322
2026-05-10 11:32:25.630,508,0.596833625,-1.091084975,0.2931726025,2.77661165,1.4514922000000001,-5.05872785
2026-05-10 11:32:25.640,509,0.25862791,-1.129761075,0.31639040500000004,3.13518955,1.4309900500000001,-4.9940526
2026-05-10 11:32:25.650,510,-0.88258198,-1.196319775,-0.528384485,5.1919344249999995,-0.053412537500000024,-3.5748597
2026-05-10 11:32:25.660,511,-1.0922589,-0.93907917,-0.9120654,4.073045866666667,-1.2495758333333333,-1.8528561000000001
2026-05-10 11:32:25.670,512,-1.0922589,-0.93907917,-0.9120654,3.6925278,-1.3550519,-1.5294539
2026-05-10 11:32:25.680,513,-0.89038732,-0.87172765,-0.6618069,2.543031925,-1.17427385,-0.730556675
2026-05-10 11:32:25.690,514,-0.83389014,-0.8701117000000002,-0.6158286,2.0097466,-0.9370673000000002,-0.37995818
2026-05-10 11:32:25.700,515,-0.83389014,-0.8701117,-0.6158286,1.59076945,-0.7059311375,-0.13679563625
2026-05-10 11:32:25.710,516,-0.778002735,-0.9522964,-0.5551847999999999,0.5346979924999999,-0.11323913875000001,0.53286541125
2026-05-10 11:32:25.720,517,-0.9598731,-1.2383039,-0.27257687,-2.0434968,1.0522153,3.447418
2026-05-10 11:32:25.730,518,-0.9598731,-1.2383039,-0.27257687,-2.0434968,1.0522153,3.447418
2026-05-10 11:32:25.740,519,-1.0145917666666666,-1.3002181,-0.2379000566666667,-2.0434968,1.0522153,3.4474180000000003
2026-05-10 11:32:25.750,520,-1.0292979,-1.3920019,-0.190255005,-2.65294965,1.08375125,4.93770025
2026-05-10 11:32:25.760,521,-0.95869925,-1.48190045,-0.15249365750000002,-3.213265775,0.845093885,6.67744425
2026-05-10 11:32:25.770,522,-0.16854642875,-1.692370025,-0.1015455575,-3.4596353,0.61086524,7.578852
2026-05-10 11:32:25.780,523,0.036892395,-1.7334547,-0.09201756,-4.2209263,-0.24938573,9.970543
2026-05-10 11:32:25.790,524,0.5216462975,-1.74345535,-0.071010239,-4.4329729,-0.45265116499999997,10.384174999999999
2026-05-10 11:32:25.800,525,1.24155115,-1.7376014,-0.03308119875,-4.6450195,-0.6559166,10.797807
2026-05-10 11:32:25.810,526,2.0705477500000002,-1.661163975,0.02678509925,-5.1729595250000004,-0.937754495,10.985494749999999
2026-05-10 11:32:25.820,527,2.33794125,-1.44234025,0.143362025,-5.8945443,-0.673555295,9.87211725
2026-05-10 11:32:25.830,528,1.7996375666666669,-1.2802576333333333,0.4375662,-6.877120833333334,0.2985603766666667,8.806131666666667
2026-05-10 11:32:25.840,529,1.5628351,-1.2387308,0.8450493,-6.7897673,0.67164636,8.935889
2026-05-10 11:32:25.850,530,1.5628351,-1.2387308,0.8450493,-6.7897673,0.67164636,8.935889
2026-05-10 11:32:25.860,531,1.88129885,-1.1108879999999999,0.898284125,-6.7897673,0.67164636,8.935889
2026-05-10 11:32:25.870,532,2.1997626,-0.9830452,0.95151895,-6.252358400000001,0.34742960000000006,8.820436
2026-05-10 11:32:25.880,533,2.8522548,-0.52309456,1.1802822625,-5.119928875,-0.5507332,7.775741925
2026-05-10 11:32:25.890,534,2.8146763999999997,-0.1196563725,1.30378035,-1.42709574,-3.3794974250000003,5.6798632
2026-05-10 11:32:25.900,535,1.783229075,0.9934573999999999,0.28984923250000005,2.175405725,-3.9002600249999997,4.974695799999999
2026-05-10 11:32:25.910,536,1.6841837,1.1393958,-0.07262619,2.2953262,-3.4031303,4.9955034
2026-05-10 11:32:25.920,537,1.9195632,1.3892274,-0.82712144,2.2953262,-3.4031302999999995,4.9955034
2026-05-10 11:32:25.930,538,2.5022802,1.4505115,-0.889869,-1.832443,0.03481932,5.447238
2026-05-10 11:32:25.940,539,3.102803,1.5062464,-0.386303,-2.2673027,0.224073005,5.3437345
2026-05-10 11:32:25.950,540,3.102803,1.5062464,-0.386303,-3.5718818,0.79183406,5.033224
2026-05-10 11:32:25.960,541,3.102803,1.5062464,-0.386303,-3.5718818,0.7918340599999999,5.033224
2026-05-10 11:32:25.970,542,3.102803,1.5062464,-0.386303,-3.5718818,0.79183406,5.033224
2026-05-10 11:32:25.980,543,3.102803,1.5062464,-0.386303,-4.21283195,0.662979665,4.2849525250000005
2026-05-10 11:32:25.990,544,3.2784992,1.57266795,0.06918089999999999,-4.1958041,0.400918475,3.607617525
2026-05-10 11:32:26.000,545,3.8055878,1.7719326,1.4356326,-3.5037704,-0.2564107,2.323884
2026-05-10 11:32:26.010,546,2.24052702,0.652263625,0.680009215,-0.7334964500000001,0.44104469999999996,-1.0030408000000004
2026-05-10 11:32:26.020,547,0.67546624,-0.46740535,-0.07561417,2.0367775,1.1385001,-4.3299656
2026-05-10 11:32:26.030,548,0.49429715,-0.5538128,0.0013415418,2.0367775,1.1385001,-4.3299656
2026-05-10 11:32:26.040,549,0.49429715,-0.5538128,0.0013415418,2.0367775,1.1385001,-4.3299656
2026-05-10 11:32:26.050,550,0.49429715,-0.5538128,0.0013415418,2.0616703,1.1166617,-4.291023
2026-05-10 11:32:26.060,551,0.49429715,-0.5538128,0.0013415418,2.146542325,1.0489701500000002,-4.2158865
2026-05-10 11:32:26.070,552,0.38849829,-0.5939066,0.0210225676,2.390468425,0.83532002,-4.0329323
2026-05-10 11:32:26.080,553,-0.4437453925,-0.691534265,-0.2341295175,3.6997818000000002,-0.34078645,-3.00087545
2026-05-10 11:32:26.090,554,-0.7680326000000001,-0.71504176,-0.41502422,3.73819,-0.45265114,-2.9019153
2026-05-10 11:32:26.100,555,-0.970087025,-0.651791065,-0.587625755,2.937231025,-1.12223581,-2.0183751
2026-05-10 11:32:26.110,556,-1.0374385,-0.6307075,-0.6451596,2.6702447,-1.3454307,-1.7238617
2026-05-10 11:32:26.120,557,-1.2730621,-0.59412,-0.6727832,1.6519324,-1.1888965,-1.2267702
2026-05-10 11:32:26.130,558,-1.331160025,-0.6810763599999999,-0.36553960500000005,-0.99639756,0.1202259125,1.092456125
2026-05-10 11:32:26.140,559,-1.1139675,-0.7769356,-0.20671937,-2.0178406,0.840856,2.3302982
2026-05-10 11:32:26.150,560,-0.3053633333333334,-0.9356643333333334,0.035266285333333335,-3.1961996666666668,1.7830138,4.3860634
2026-05-10 11:32:26.160,561,0.33439451,-1.0357312,0.08058396749999999,-3.7566686,1.7521143,5.8443007
2026-05-10 11:32:26.170,562,0.4250248,-1.0445732,0.08250481,-3.7843484,1.6486108,5.959639624999999
2026-05-10 11:32:26.180,563,0.9647362000000002,-1.048049,0.1270043575,-3.87803975,0.1706222875,6.87399005
2026-05-10 11:32:26.190,564,1.2286286666666666,-1.0710787333333334,0.12557642666666666,-3.9166133666666667,-0.3979787133333333,7.175324733333333
2026-05-10 11:32:26.200,565,1.3682201,-1.082929,0.12098266499999999,-4.18832115,-0.9570731699999999,7.5917568
2026-05-10 11:32:26.210,566,1.4658172,-1.0838437,0.12451946,-4.389983,-1.1572843,7.7844086
2026-05-10 11:32:26.220,567,1.7734571666666668,-0.9661335900000001,0.2899762633333333,-4.509916333333333,-1.04376512,7.5919859999999995
2026-05-10 11:32:26.230,568,1.7716278,-0.91822433,0.37398523,-4.6318855,-0.7680103,7.314806
2026-05-10 11:32:26.240,569,1.7716278,-0.91822433,0.37398523,-4.65349505,-0.54107388,7.203552
2026-05-10 11:32:26.250,570,1.626863275,-0.8096813825,0.4814457725,-4.58416215,-0.056772289999999996,6.949012
2026-05-10 11:32:26.260,571,1.5069985,-0.6989025666666667,0.5986324933333333,-4.4363581000000005,0.053145276666666665,6.8226521
2026-05-10 11:32:26.270,572,1.460481525,-0.62624085,0.694827125,-3.62991405,-0.1256473455,6.5054474
2026-05-10 11:32:26.280,573,1.50153575,-0.60033995,0.7120994625,-3.1152601,-0.3791946,6.3885813
2026-05-10 11:32:26.290,574,1.6520781,-0.5097248999999999,0.7411102875000001,-2.796312075,-0.5580254,6.2732041
2026-05-10 11:32:26.300,575,1.7227225333333334,-0.3230473133333333,0.7636217666666667,-1.839468,-1.0945178,5.9270725
2026-05-10 11:32:26.310,576,1.6942452749999999,-0.20903659199999997,0.6886682125,0.14798208499999999,-2.014633625,5.547114475
2026-05-10 11:32:26.320,577,1.6503402,0.013781292,0.47435695,1.4628695,-2.2395847,5.3727126
2026-05-10 11:32:26.330,578,2.2239711,0.26160064,-0.11958014,1.2530373,-1.5761851,5.109735
2026-05-10 11:32:26.340,579,2.4954809,0.28178474,-0.10503661,0.801531535,-1.2055426,4.7094655
2026-05-10 11:32:26.350,580,2.79685525,0.33841912500000004,-0.023126348175000002,0.35002577,-0.8349001,4.309196
2026-05-10 11:32:26.360,581,2.8068101,0.35056922,-0.0006707709,0.35002577,-0.8349001,4.309196
2026-05-10 11:32:26.370,582,2.8068101,0.35056921999999996,-0.0006707709,0.35002577,-0.8349001,4.309196
2026-05-10 11:32:26.380,583,2.8068101,0.35056922,-0.0006707709,0.265191865,-1.02655905,4.10661815
2026-05-10 11:32:26.390,584,2.9762254500000003,0.5271191550000001,-0.029574895725,0.08895724699999999,-1.4802792,3.994486075
2026-05-10 11:32:26.400,585,3.2397013,0.76845944,-0.13750802,0.029932396,-1.5935947,3.96421
2026-05-10 11:32:26.410,586,3.9337253333333333,1.4339658,-0.4146786433333333,-1.476257668,-1.2955434,3.3075299
2026-05-10 11:32:26.420,587,4.351717225,1.62764065,0.28268415,-3.794962,-0.21498639175,1.9154062250000001
2026-05-10 11:32:26.430,588,3.3025708,1.2304986,1.2884898,-4.0016255,1.6423112,-1.7293595
2026-05-10 11:32:26.440,589,2.5019143,1.0291454,1.3047713,-0.7612144625000001,1.041601575,-2.5841127
2026-05-10 11:32:26.450,590,2.4677253,1.0532118666666666,0.5859081766666666,0.94449945,0.3625485133333333,-2.941061566666667
2026-05-10 11:32:26.460,591,2.4163757,1.079499,0.06392141400000001,1.13048245,0.48624872500000005,-3.56997285
2026-05-10 11:32:26.470,592,1.9323689,0.8851126,0.09372498,0.2910773,1.2837334,-5.034446
2026-05-10 11:32:26.480,593,1.9323689,0.8851125999999999,0.09372498,0.3505348533333333,1.2197961333333334,-5.195510666666666
2026-05-10 11:32:26.490,594,1.9323689,0.8851126,0.09372498,0.44963502250000004,1.1764883,-5.351103125
2026-05-10 11:32:26.500,595,1.8121789,0.7449825,0.181474,0.806418475,1.169157875,-5.680741175
2026-05-10 11:32:26.510,596,1.68695825,0.542928015,0.250045065,1.1041389,1.1869111499999998,-5.8314722
2026-05-10 11:32:26.520,597,1.5228328,0.3237384,0.2579419,1.9283489000000003,1.0896308,-6.085134
2026-05-10 11:32:26.530,598,1.5011852,0.28221158999999996,0.23516617,1.9950859250000001,1.0647380625,-6.09284625
2026-05-10 11:32:26.540,599,1.5075574999999999,0.22597355249999998,0.18130631,2.2870031500000003,0.9216811125,-6.11961
2026-05-10 11:32:26.550,600,1.5455982666666668,-0.046303523333333346,-0.07732158666666666,2.4452426666666667,0.6652322333333333,-6.343173866666667
2026-05-10 11:32:26.560,601,1.38428805,-0.23423622500000002,-0.1552986875,2.2610413,0.6698900999999999,-6.42149185
2026-05-10 11:32:26.570,602,1.3381878,-0.25885656,-0.15372847,2.1352794,0.7002043,-6.3934684
2026-05-10 11:32:26.580,603,1.279312425,-0.25550270750000004,-0.12692812825,2.052659875,0.629573,-6.251709475
2026-05-10 11:32:26.590,604,1.1148414666666666,-0.26686516,-0.015041526666666666,1.7057393333333335,0.34956763333333335,-5.547623633333333
2026-05-10 11:32:26.600,605,1.1391518,-0.30971318,0.047929626,1.5076154,0.2133447,-4.9900055
2026-05-10 11:32:26.610,606,1.153192275,-0.3748846775,0.1110887995,1.5251396,0.2427425875,-4.969617875
2026-05-10 11:32:26.620,607,1.1953137,-0.57039917,0.30056632,1.5777122,0.33093625,-4.908455
2026-05-10 11:32:26.630,608,1.1647021,-0.640342235,0.36282605,1.8029687,0.42943826,-4.9446487
2026-05-10 11:32:26.640,609,1.1340905,-0.7102853,0.42508578,1.8029687,0.42943826,-4.9446487
2026-05-10 11:32:26.650,610,0.97459955,-0.83123752,0.519176645,2.129628875,0.449024135,-5.011996675
2026-05-10 11:32:26.660,611,0.6712789666666668,-0.9805043666666666,0.5748912566666667,2.8625145333333335,0.27290405333333334,-5.1132476
2026-05-10 11:32:26.670,612,0.5288723,-1.0267673,0.55863017,3.43542985,0.052038084500000005,-5.1563133500000005
2026-05-10 11:32:26.680,613,-0.09871002849999999,-1.140935475,0.344196895,4.222376925,-0.497358827,-4.998481175
2026-05-10 11:32:26.690,614,-0.5602969133333333,-1.1558804333333335,0.029290336666666656,5.3038373,-1.9462167,-4.26949
2026-05-10 11:32:26.700,615,-0.98853326,-1.1370175,-0.34788615,5.083467649999999,-2.3015875,-3.903658
2026-05-10 11:32:26.710,616,-0.98853326,-1.1370175,-0.34788615,4.863098,-2.6569583,-3.537826
2026-05-10 11:32:26.720,617,-0.98853326,-1.1370175,-0.34788615000000006,4.863098,-2.6569583,-3.5378260000000004
2026-05-10 11:32:26.730,618,-1.01202547,-1.123952725,-0.3765463575,4.4736715,-2.8295277,-3.2304079999999997
2026-05-10 11:32:26.740,619,-1.1652509,-0.98347202,-0.46502714,3.2698853000000003,-3.01454355,-2.4713315
2026-05-10 11:32:26.750,620,-1.2479997,-0.88218564,-0.4675273,2.4555256,-3.02699,-2.019673
2026-05-10 11:32:26.760,621,-1.2860506333333335,-0.81669402,-0.20639416666666666,1.0360274266666667,-2.4167864666666667,-1.1801916099999998
2026-05-10 11:32:26.770,622,-1.284206,-0.8100930225,-0.0722908075,-0.42355869,-1.3541736974999998,-0.2043344225
2026-05-10 11:32:26.780,623,-1.264403,-0.8202918,0.08805392,-1.5054774,-0.24236079,0.6441574
2026-05-10 11:32:26.790,624,-1.211960925,-0.85905929,0.1549938,-2.022613025,0.47773483000000005,1.200732025
2026-05-10 11:32:26.800,625,-1.0546347,-0.9753617599999999,0.35581344,-3.3273829999999998,2.4628051333333336,2.766303333333333
2026-05-10 11:32:26.810,626,-0.9342008500000001,-1.00618673,0.40148682,-3.7996581999999997,3.4660494,3.66847485
2026-05-10 11:32:26.820,627,-0.31414942749999997,-1.159595075,0.3978128475,-3.86246285,3.7434585250000003,5.00653715
2026-05-10 11:32:26.830,628,0.05913454500000001,-1.175388775,0.29736491249999997,-3.63407545,3.0025172,5.8594575749999995
2026-05-10 11:32:26.840,629,0.1460451,-1.1726295,0.27239394,-3.563635,2.7563767,6.029698
2026-05-10 11:32:26.850,630,0.36785685,-1.1497012500000001,0.24876451500000002,-3.563635,2.7563767,6.029698
2026-05-10 11:32:26.860,631,0.5896686,-1.126773,0.22513509,-3.47250155,2.40535825,6.11823525
2026-05-10 11:32:26.870,632,0.5896686,-1.126773,0.22513509,-3.14557415,1.1879038,6.39892775
2026-05-10 11:32:26.880,633,0.9516409600000001,-1.0935394,0.27239394,-2.8716266666666663,0.42842016,6.4526712
2026-05-10 11:32:26.890,634,0.95164096,-1.0935394,0.27239394,-2.644894,-0.10415252,6.4696736
2026-05-10 11:32:26.900,635,0.98575878,-1.0760384,0.28547396999999997,-2.644894,-0.10415252,6.4696736
2026-05-10 11:32:26.910,636,1.1051254,-0.9488358,0.32892162,-2.1788037,-0.57787853,6.550766
2026-05-10 11:32:26.920,637,1.1792761,-0.8499886,0.32221392,-2.0709858,-0.40362919999999997,6.515641
2026-05-10 11:32:26.930,638,1.184398375,-0.81042835,0.32376888,-2.009594,0.14782938,6.369492
2026-05-10 11:32:26.940,639,1.1985303,-0.782865775,0.329363725,-2.009594,0.14782938,6.369492
2026-05-10 11:32:26.950,640,1.2986124,-0.66223377,0.37331447,-1.8677205,0.44608435,6.19509
2026-05-10 11:32:26.960,641,1.2986124,-0.66223377,0.37331447,-1.8677205,0.44608435,6.19509
2026-05-10 11:32:26.970,642,1.3234309,-0.5260673,0.3849615,-1.7661132666666666,0.46690468,6.0912429
2026-05-10 11:32:26.980,643,1.2956701000000002,-0.4884278975,0.35354196000000004,-1.2625820749999999,0.396756985,5.649205425
2026-05-10 11:32:26.990,644,1.2807302,-0.46344167999999997,0.31727459750000003,-0.8505916324999999,0.106825055,5.382639075
2026-05-10 11:32:27.000,645,1.2636713,-0.42612243,0.23989205,-0.32788193,-0.3555236,5.0921726
2026-05-10 11:32:27.010,646,1.20089325,-0.412935685,0.16421690075,-0.08697194355,-0.6250296825,5.0883929
2026-05-10 11:32:27.020,647,1.1357371,-0.386425,0.048173543000000006,0.31031955,-1.0898853666666666,5.2521175
2026-05-10 11:32:27.030,648,1.2221292250000002,-0.3188296,-0.12328463425,0.31306845,-1.1230757,5.4812937
2026-05-10 11:32:27.040,649,1.2509266,-0.2962978,-0.18043736,0.31306845,-1.1230757,5.4812937
2026-05-10 11:32:27.050,650,1.2509266,-0.2962978,-0.18043736,0.31306845,-1.1230757,5.481293699999999
2026-05-10 11:32:27.060,651,1.460847475,-0.19453879000000002,-0.306389825,0.082963139025,-0.97852973,5.77725795
2026-05-10 11:32:27.070,652,2.13905775,0.11189678,-0.40291986,-0.301118398475,-0.83768712,5.944024275
2026-05-10 11:32:27.080,653,2.7472944,0.38441268,-0.45746574,-1.2232577,-0.55970526,6.148359
2026-05-10 11:32:27.090,654,2.7472944,0.38441268,-0.45746574,-1.2232577,-0.55970526,6.148359
2026-05-10 11:32:27.100,655,2.7472944,0.38441268,-0.45746574,-1.2232577,-0.55970526,6.148359
2026-05-10 11:32:27.110,656,3.2804352,0.7243715900000001,-0.22559244285,-1.56511315,-0.754418555,5.531614
2026-05-10 11:32:27.120,657,3.995375333333333,1.2357225,0.12494631143333335,-1.9069686,-0.94913185,4.914869
2026-05-10 11:32:27.130,658,4.1290216,1.3964839,0.26446667,-1.9924134,-0.6277403850000001,3.9112938500000003
2026-05-10 11:32:27.140,659,4.13894595,1.7264574000000001,0.494358105,-2.0064633,-0.025618165000000026,2.4102452850000002
2026-05-10 11:32:27.150,660,4.132863,1.6943061,0.442038,-1.7922786,0.8165741,0.91782504
2026-05-10 11:32:27.160,661,4.132863,1.6943060999999997,0.442038,-1.7922786000000002,0.8165741,0.91782504
2026-05-10 11:32:27.170,662,3.7774763,1.7403455,0.70851696,-2.002683525,0.6640104950000001,1.42052901
2026-05-10 11:32:27.180,663,3.4077140999999997,1.610002525,0.627948215,0.22403484500000004,-0.1349630425,-0.4873940875
2026-05-10 11:32:27.190,664,3.1853688,1.4556336,0.199036,1.8802432,-0.6772968,-1.8304577
2026-05-10 11:32:27.200,665,3.096522,1.3219674,-0.37465600000000004,1.2873985,-0.027641652,-2.9060387999999997
2026-05-10 11:32:27.210,666,3.0505742500000004,1.3058383999999998,-0.3935138125,1.13739291,0.0416533735,-3.0119093500000003
2026-05-10 11:32:27.220,667,2.409043,1.0826851,-0.14000817,-0.43111816,0.6072,-3.7316232
2026-05-10 11:32:27.230,668,1.7944339999999999,0.35776476,0.024544115000000005,0.3985895200000001,0.84238315,-4.65975645
2026-05-10 11:32:27.240,669,1.179825,-0.36715558,0.1890964,1.2282972,1.0775663,-5.5878897
2026-05-10 11:32:27.250,670,1.179825,-0.36715558,0.1890964,1.2282972,1.0775663,-5.5878897
2026-05-10 11:32:27.260,671,1.179825,-0.36715558,0.18909640000000003,1.2282972,1.0775663,-5.587889700000001
2026-05-10 11:32:27.270,672,1.179825,-0.36715558,0.18909640000000003,1.4143058,1.0005972,-5.5903335
2026-05-10 11:32:27.280,673,1.179825,-0.36715558,0.1890964,1.5555683,0.9627236,-5.5652876
2026-05-10 11:32:27.290,674,1.1285415,-0.43636695,0.22184221,1.5555683,0.9627236,-5.5652876
2026-05-10 11:32:27.300,675,1.0794735666666666,-0.49466301,0.21659800333333334,1.8014416333333336,0.9425650666666666,-5.449630733333334
2026-05-10 11:32:27.310,676,0.97487395,-0.6777682150000001,0.211917845,1.946789425,0.944932175,-5.372788975000001
2026-05-10 11:32:27.320,677,0.9603609,-0.7051631,0.21458568,2.0140228,0.9822713,-5.315749
2026-05-10 11:32:27.330,678,0.8538912499999999,-0.79760754,0.26599112,2.2069035,1.0728321,-5.235879
2026-05-10 11:32:27.340,679,0.85389125,-0.79760754,0.26599112,2.2069035,1.0728321,-5.235879
2026-05-10 11:32:27.350,680,0.85389125,-0.79760754,0.26599112,2.4593434,1.0381655,-5.2038083
2026-05-10 11:32:27.360,681,0.6669291125000001,-0.8582513475,0.26471057,2.4593434,1.0381655,-5.2038083
2026-05-10 11:32:27.370,682,0.501751825,-0.8955705325000001,0.28138838499999996,2.7556512250000003,0.80156972,-5.16582015
2026-05-10 11:32:27.380,683,0.20877234199999997,-0.9178178133333333,0.32091304666666665,3.0816624000000004,0.52122074,-5.0281844
2026-05-10 11:32:27.390,684,0.091651686,-0.90785784,0.32306764,3.12522475,0.4836525375,-5.0002373
2026-05-10 11:32:27.400,685,0.091651686,-0.90785784,0.32306764,3.2559118,0.37094793,-4.916396
2026-05-10 11:32:27.410,686,-0.2604217146666667,-0.9023290633333333,0.27613399666666666,3.6853501333333334,0.17827084433333332,-4.4856853333333335
2026-05-10 11:32:27.420,687,-0.782667665,-0.920693975,0.143392513,4.279264,-0.14508049,-3.6144896
2026-05-10 11:32:27.430,688,-1.0187485,-0.93776815,0.007439458000000003,4.279264,-0.14508049,-3.6144896
2026-05-10 11:32:27.440,689,-1.0698794999999999,-0.8698830399999999,-0.4176158525,4.06580445,-0.7509824725,-1.7594446000000001
2026-05-10 11:32:27.450,690,-1.0425608,-0.845781,-0.47295445,3.7931678000000004,-0.93767816,-1.1348349
2026-05-10 11:32:27.460,691,-1.0462653,-0.7613706,-0.52993947,2.967812475,-0.994755905,-0.77980766
2026-05-10 11:32:27.470,692,-1.0896977,-0.4543558,-0.65320885,1.6362026,-1.082606,-0.3061962
2026-05-10 11:32:27.480,693,-1.0677452,-0.49127865,-0.539513185,-0.156916,-0.91721415,0.219529704
2026-05-10 11:32:27.490,694,-0.9590804,-0.6154018,-0.05866195999999999,-1.9653062,-0.028710667,1.0905472
2026-05-10 11:32:27.500,695,-0.9590804,-0.6154018,-0.05866196,-1.9653062,-0.028710667,1.0905472
2026-05-10 11:32:27.510,696,-0.9389267575,-0.713471545,0.13252297,-2.1644482,0.6423248165,2.0245601
2026-05-10 11:32:27.520,697,-0.8616153,-0.89175936,0.35065054333333334,-2.3045908,1.3251194333333334,3.1910072333333335
2026-05-10 11:32:27.530,698,-0.77498424,-0.9377376,0.33069003,-2.186592,1.3486377,3.6558757
2026-05-10 11:32:27.540,699,-0.77498424,-0.9377376,0.33069003,-2.186592,1.3486377,3.6558757
2026-05-10 11:32:27.550,700,-0.7113829700000001,-0.95225065,0.3094845225,-2.026239975,1.190461875,4.313433925
2026-05-10 11:32:27.560,701,-0.04256345933333333,-1.0717496,0.14856557,-1.7999144666666667,0.58699059,5.689904200000001
2026-05-10 11:32:27.570,702,0.349288674,-1.1169401749999999,0.09599645200000001,-1.76498065,0.1635209835,6.566686775
2026-05-10 11:32:27.580,703,0.64912325,-1.1130528,0.06518673,-1.8095356,0.037873644,6.8833823
2026-05-10 11:32:27.590,704,0.64912325,-1.1130528,0.06518673,-1.8095356,0.037873644,6.8833823
2026-05-10 11:32:27.600,705,1.4611218,-0.9455430000000001,0.01243975,-2.0850867,-0.25977044,7.143152866666667
2026-05-10 11:32:27.610,706,1.4936999,-0.9292005750000001,0.005427145749999999,-2.2821544,-0.2678262225,6.993949000000001
2026-05-10 11:32:27.620,707,1.600199975,-0.856223725,-0.0169674535,-2.7727174,-0.1147281275,6.59226675
2026-05-10 11:32:27.630,708,1.4713815499999998,-0.668621325,0.09950274725,-3.44108035,0.3870213175,6.20108405
2026-05-10 11:32:27.640,709,1.4353276,-0.6574164,0.12506826,-3.6034942,0.5326745,6.1188846
2026-05-10 11:32:27.650,710,2.2368836500000002,0.5778080624999999,0.7855641225,-2.201443825,-1.080315175,5.378286725
2026-05-10 11:32:27.660,711,2.667213625,1.064559,1.178208985,-1.1172343500000002,-0.92962235,5.172043374999999
2026-05-10 11:32:27.670,712,3.3128355333333332,1.4324615333333333,0.5940387266666667,-0.3286455,-0.2264783,4.758793
2026-05-10 11:32:27.680,713,3.4961796,1.5428948,0.41478032,-0.3286455,-0.2264783,4.758793
2026-05-10 11:32:27.690,714,3.64467915,1.642961675,0.26554904,-0.4561254375,-0.07013496949999999,4.43820325
2026-05-10 11:32:27.700,715,3.694179,1.6763173,0.21580528,-0.49861875000000005,-0.018020526,4.33134
2026-05-10 11:32:27.710,716,3.756774075,1.771642975,0.18929458624999998,-0.6865361875,-0.0575740495,4.0049470750000005
2026-05-10 11:32:27.720,717,3.93286655,2.1135989,0.25153906375,-1.2519683499999998,-0.42180244,2.7033841499999998
2026-05-10 11:32:27.730,718,4.19873575,2.43979175,1.080367825,-0.674433395,-0.8327238325,1.744058475
2026-05-10 11:32:27.740,719,4.282262,2.464778,1.0956126,0.2049453,-0.65500027,0.8356637
2026-05-10 11:32:27.750,720,4.282262,2.464778,1.0956126,0.32921818999999997,-0.5337053350000001,0.6173557225
2026-05-10 11:32:27.760,721,4.2182645,2.47479395,0.95398855,0.70203686,-0.16982053,-0.03756821
2026-05-10 11:32:27.770,722,4.052066,2.4538019,0.825475,1.2136365,0.29458976,-1.1319333
2026-05-10 11:32:27.780,723,3.023011675,1.894134925,0.1024602475,1.2541826999999999,0.442686405,-2.53134915
2026-05-10 11:32:27.790,724,2.569845,1.6302781,-0.17440042,0.8565858,0.21059579,-3.3767104
2026-05-10 11:32:27.800,725,2.5369772,1.5979896,-0.20162762,0.8565858,0.21059579,-3.3767104
2026-05-10 11:32:27.810,726,2.511264333333333,1.5432811,-0.21509385666666667,0.7333437333333332,0.12767083433333334,-3.4436001666666662
2026-05-10 11:32:27.820,727,2.5255742,1.4984411,-0.18757193,0.4868596,-0.038179077,-3.5773797
2026-05-10 11:32:27.830,728,2.5273121,1.4606645,-0.14275223,0.2896264825,-0.09865473675,-3.757088625
2026-05-10 11:32:27.840,729,2.477354825,1.399045025,-0.101515065,-0.13251958249999998,-0.02290744675,-4.1548380499999995
2026-05-10 11:32:27.850,730,2.2210443,1.0344505,0.14641099,-0.8929831666666667,0.8013533933333333,-5.219385233333333
2026-05-10 11:32:27.860,731,2.175264175,0.9972227499999999,0.16475046999999998,-0.8932377,0.86926126,-5.299714
2026-05-10 11:32:27.870,732,1.9297772000000002,0.7924548,0.265564275,-0.7916431875000001,1.002468115,-5.4451765
2026-05-10 11:32:27.880,733,1.6908506666666667,0.5770865000000001,0.34815039333333336,-0.5262604166666667,1.1585568,-5.580203133333334
2026-05-10 11:32:27.890,734,1.6254607,0.5159447,0.36654577,-0.13576481,1.2858714,-5.673411
2026-05-10 11:32:27.900,735,1.1803738,-0.048112564,0.2941635,0.37583484,1.43553335,-5.6571467
2026-05-10 11:32:27.910,736,1.0341609999999999,-0.2450905135,0.2605487475,0.816765,1.5205581499999998,-5.46762585
2026-05-10 11:32:27.920,737,0.9854233999999998,-0.31074983,0.24934383000000002,0.9317222,1.5398386000000002,-5.411808
2026-05-10 11:32:27.930,738,0.9854234,-0.31074983,0.24934383,0.9317222,1.5398386,-5.411808
2026-05-10 11:32:27.940,739,0.9113336999999999,-0.402889355,0.24538017,1.2657128,1.448781475,-5.202777375
2026-05-10 11:32:27.950,740,0.837244,-0.49502888,0.24141651,1.5578590666666667,1.344310766666667,-5.026708166666666
2026-05-10 11:32:27.960,741,0.7818748799999999,-0.592412605,0.2576217425,1.737186175,1.264605575,-4.9301406000000005
2026-05-10 11:32:27.970,742,0.7665081,-0.6540625,0.26800343,2.0039434,1.1366675,-4.8000264
2026-05-10 11:32:27.980,743,0.7678191624999999,-0.7825608900000001,0.243200165,2.4705681,0.95520235,-4.581795
2026-05-10 11:32:27.990,744,0.7686424,-0.84023196,0.21781757,2.6430612,0.9024007,-4.480086
2026-05-10 11:32:28.000,745,0.7686424,-0.84023196,0.21781757,2.6430612,0.9024007,-4.480086
2026-05-10 11:32:28.010,746,0.7099499499999999,-0.91285813,0.193303955,2.8339566,0.909120215,-4.3582944999999995
2026-05-10 11:32:28.020,747,0.28157131,-1.0496039499999998,0.08341950000000001,3.17084885,0.765795945,-3.89999275
2026-05-10 11:32:28.030,748,0.17525412000000004,-1.048049,0.05768629,3.3637295,0.43569964,-3.2820263
2026-05-10 11:32:28.040,749,0.07413542000000001,-1.0362495250000001,0.05061270825,3.368769125,0.34700964,-3.153133725
2026-05-10 11:32:28.050,750,-0.13415417,-1.0137177,0.05799119,3.4031303,-0.012828173000000005,-2.62275
2026-05-10 11:32:28.060,751,-0.13415417,-1.0137177,0.05799119,3.4223726,-0.106595986,-2.479044
2026-05-10 11:32:28.070,752,-0.36892396,-0.995241,0.09653002,3.5103880666666663,-0.196749514,-2.327040333333333
2026-05-10 11:32:28.080,753,-0.6105996375,-0.898009705,-0.40538951375,3.3722815500000003,-0.9505826749999999,-0.45013133499999997
2026-05-10 11:32:28.090,754,-0.73911326,-0.688195615,-0.5841347100000001,2.335452325,-0.890183375,-0.10541243
2026-05-10 11:32:28.100,755,-0.9714591,-0.485882,-0.2886144,-0.24801129,-0.40225476,0.44944412000000006
2026-05-10 11:32:28.110,756,-0.968318675,-0.59143693,-0.0400938,-0.985554745,0.096898495,0.9816604600000001
2026-05-10 11:32:28.120,757,-0.8447748749999999,-0.8972474850000001,0.4262291075,-1.840422425,2.12256595,3.38247535
2026-05-10 11:32:28.130,758,-0.6803039166666666,-0.9797319333333334,0.3978483933333334,-1.7647387666666667,2.3924538666666666,3.969758666666667
2026-05-10 11:32:28.140,759,-0.40057215,-1.0781116,0.28995594,-1.7044667,2.4410176,4.3446264
2026-05-10 11:32:28.150,760,-0.20833532500000002,-1.1159492,0.20418874,-1.7044667,2.4410176,4.3446264
2026-05-10 11:32:28.160,761,-0.0160985,-1.1537868,0.11842154,-1.7044667,2.4410176,4.3446264
2026-05-10 11:32:28.170,762,0.3779183875,-1.18920045,0.03056580675,-1.922354825,1.6687311,5.876218300000001
2026-05-10 11:32:28.180,763,0.8455168066666667,-1.2155588,0.04591731433333333,-2.1917336333333335,0.8734863466666667,6.747465000000001
2026-05-10 11:32:28.190,764,1.164885,-1.200558,0.082626775,-2.3138049,0.43386704,7.071529
2026-05-10 11:32:28.200,765,1.463439,-1.2084851,0.13391025,-2.4781275999999997,-0.190437235,7.2977017
2026-05-10 11:32:28.210,766,1.6293024,-1.2162294,0.14525238,-2.525317,-0.30695978,7.3332844
2026-05-10 11:32:28.220,767,1.7373168,-1.2020009999999999,0.13179629999999998,-2.5929193666666666,-0.3258457,7.349523266666666
2026-05-10 11:32:28.230,768,1.8179414,-1.1933013,0.11787272499999998,-2.8521298,-0.298407675,7.3988
2026-05-10 11:32:28.240,769,1.8445588,-1.1917158,0.11067719,-2.9761355,-0.23319781,7.415599
2026-05-10 11:32:28.250,770,1.7917914666666668,-1.1653322,0.13844303666666666,-2.9761355,-0.23319780999999998,7.415599
2026-05-10 11:32:28.260,771,1.69967235,-1.1325356,0.19034646500000002,-3.3347515249999997,0.04226424499999999,7.547316475000001
2026-05-10 11:32:28.270,772,1.6339369,-1.1129308,0.22836697,-3.7340665,0.30558532,7.9598794
2026-05-10 11:32:28.280,773,1.6881269666666665,-1.0299178466666667,0.4193130566666667,-3.7340664999999995,0.30558532,7.959879400000001
2026-05-10 11:32:28.290,774,1.715222,-0.98841137,0.5147861,-3.908316,0.3894266,8.767138
2026-05-10 11:32:28.300,775,3.271959,-0.44033056,0.5409462,-3.4345134,0.2873739225,8.878048375
2026-05-10 11:32:28.310,776,3.4789225,-0.22202514455,0.35736841,-3.3415855,0.416151955,8.1262641
2026-05-10 11:32:28.320,777,3.685886,-0.0037197291000000006,0.17379062,-3.327841,0.54137933,7.4704237000000004
2026-05-10 11:32:28.330,778,3.5681656,0.13497738545,0.082870685,-3.7472765,0.748157215,6.198907849999999
2026-05-10 11:32:28.340,779,3.23499055,0.40185272499999997,0.2954898125,-3.9154936250000003,0.724715259,4.7020208750000005
2026-05-10 11:32:28.350,780,2.5886266,0.7863874000000001,1.206107,-2.1745276,-0.43050726999999994,3.9106066
2026-05-10 11:32:28.360,781,2.47528175,1.128800625,1.01743745,-0.92240653,-0.7872907675,3.8825449
2026-05-10 11:32:28.370,782,2.7950413,1.4605731,0.20043853,-0.27656925,-0.819323,3.5413384
2026-05-10 11:32:28.380,783,2.7950413,1.4605731,0.20043853,-0.27656925,-0.819323,3.5413384
2026-05-10 11:32:28.390,784,2.7950413,1.4605731000000002,0.20043853,-0.27656925,-0.8193230000000001,3.5413383999999994
2026-05-10 11:32:28.400,785,3.3462317,1.7814455,-0.42600048,-1.7539468,-0.08674286,1.9226984
2026-05-10 11:32:28.410,786,3.329111825,1.796690275,-0.3592130425,-2.05204905,0.01572978,1.668425725
2026-05-10 11:32:28.420,787,2.8782775,1.7321132,0.43130564999999993,-3.3179655333333335,0.4657847666666666,0.26542094
2026-05-10 11:32:28.430,788,2.8782775,1.7321132,0.43130565,-3.5037704,0.5371033,-0.05467244
2026-05-10 11:32:28.440,789,2.771259175,1.649425475,0.6888359325,-3.5037704,0.5371033,-0.05467244
2026-05-10 11:32:28.450,790,2.7355864,1.6218629,0.77467936,-3.47299805,0.5679519799999999,-0.2560289
2026-05-10 11:32:28.460,791,2.8007731,1.4216074,1.3220893,-3.4422257,0.59880066,-0.45738536
2026-05-10 11:32:28.470,792,3.14012215,1.34666395,0.710773163,-1.3936890699999998,0.60002238,-2.42780748
2026-05-10 11:32:28.480,793,3.4794712,1.2717205,0.099457026,0.65484756,0.6012441,-4.3982296
2026-05-10 11:32:28.490,794,3.4209924,1.1789712,0.08579769,0.29550606,0.4990769,-4.731915
2026-05-10 11:32:28.500,795,3.4209924,1.1789712,0.08579769,0.29550606,0.4990769,-4.731915
2026-05-10 11:32:28.510,796,3.34502745,1.097106675,0.146990285,-0.2518673765,0.425314925,-5.14249275
2026-05-10 11:32:28.520,797,3.181588,0.9169437,0.29251707,-0.61269784,0.42546764,-5.4061575
2026-05-10 11:32:28.530,798,3.13224065,0.8759504650000001,0.3231286075,-0.78771072,0.58291815,-5.5593319
2026-05-10 11:32:28.540,799,2.8137617500000003,0.657416405,0.50582216,-0.99914645,0.82233917,-5.746714725
2026-05-10 11:32:28.550,800,2.51191485,0.50685884,0.66903292,-1.09375425,1.22715195,-5.8526998
2026-05-10 11:32:28.560,801,2.1461618,0.37172902,0.8219992,-0.82818055,1.7056885,-5.778938
2026-05-10 11:32:28.570,802,2.1461618,0.37172902,0.8219992,-0.623693405,1.8550451,-5.693035
2026-05-10 11:32:28.580,803,1.8337502749999999,0.271296325,0.7861891975,-0.41920626,2.0044017,-5.607132
2026-05-10 11:32:28.590,804,1.7296131,0.23781876,0.77425253,-0.26519186699999997,2.0448714499999996,-5.5306975000000005
2026-05-10 11:32:28.600,805,1.7296131,0.23781876,0.77425253,-0.111177474,2.0853412,-5.454263
2026-05-10 11:32:28.610,806,1.5886292,0.17519315,0.7686424,-0.111177474,2.0853412,-5.454263
2026-05-10 11:32:28.620,807,1.5232291,0.10808557499999999,0.780137,0.23480133800000003,2.0498347,-5.399819750000001
2026-05-10 11:32:28.630,808,1.242541975,-0.1963986625,0.734265425,1.1945469,1.9365956,-5.3247595
2026-05-10 11:32:28.640,809,1.2180588,-0.22147635,0.7213226,1.8611536333333334,1.7940603333333334,-5.3158001666666665
2026-05-10 11:32:28.650,810,1.1072597000000002,-0.307944805,0.65467235,2.6933048,1.5813774,-5.29666
2026-05-10 11:32:28.660,811,0.9570223125,-0.42786031999999996,0.5541786675,2.8774425,1.474514175,-5.274287
2026-05-10 11:32:28.670,812,0.7964184000000001,-0.5694844,0.39709635,3.4298556,1.1539245,-5.207168
2026-05-10 11:32:28.680,813,0.7452467466666667,-0.7265261166666667,0.19143393333333333,4.194812,0.5532912,-4.8201847
2026-05-10 11:32:28.690,814,0.74443364,-0.78632635,0.1390325,4.2599452499999995,0.510530635,-4.752302350000001
2026-05-10 11:32:28.700,815,0.74443364,-0.78632635,0.1390325,4.3250785,0.46777007,-4.68442
2026-05-10 11:32:28.710,816,0.6449766333333333,-0.9090164499999999,0.046913306666666675,4.2965206333333334,0.59432099,-4.5451428
2026-05-10 11:32:28.720,817,0.43347042,-1.03824655,-0.19677978349999997,3.96501175,0.5950209375000001,-4.1475458
2026-05-10 11:32:28.730,818,0.17915679499999998,-1.01076018,-0.363862695,3.177721,-0.27214046700000005,-3.81615165
2026-05-10 11:32:28.740,819,0.08939546,-0.96450746,-0.38453462999999993,2.5513295333333335,-0.6644177533333334,-3.6408077999999997
2026-05-10 11:32:28.750,820,0.033919661749999996,-0.9003879124999999,-0.3075179475,2.4069617,-0.7154759,-3.5990653
2026-05-10 11:32:28.760,821,0.015427729,-0.87901473,-0.28184572,2.4069617,-0.7154759,-3.5990653
2026-05-10 11:32:28.770,822,-0.07843953533333332,-0.8423865833333334,-0.14988678866666666,2.155438,-0.77579886,-3.5369098
2026-05-10 11:32:28.780,823,-0.270473095,-0.8323046625,-0.09837464075,1.96542075,-0.68920871,-3.34544175
2026-05-10 11:32:28.790,824,-0.57204556,-0.760959,-0.122751065,1.7304286,-0.46486846,-2.9894218
2026-05-10 11:32:28.800,825,-0.8016524533333333,-0.7409985,-0.16157446833333333,1.7304286,-0.46486846,-2.9894218
2026-05-10 11:32:28.810,826,-1.0015523,-0.729219375,-0.19958482,1.6056593000000001,-0.40294198999999997,-2.5898395499999998
2026-05-10 11:32:28.820,827,-1.151698275,-0.7367503,-0.26253057,1.41476385,-0.47395506,-1.76700405
2026-05-10 11:32:28.830,828,-0.9014753333333333,-0.5482027233333333,-0.3547361233333333,0.12858712666666663,-0.6541857733333333,1.7342464333333332
2026-05-10 11:32:28.840,829,-0.7372991375,-0.6286342175,-0.2728817775,-0.732389245,0.268398925,2.7603473000000003
2026-05-10 11:32:28.850,830,-0.23757485499999997,-0.97706917,-0.062107286000000005,-2.19384615,1.6817883999999999,5.7396135
2026-05-10 11:32:28.860,831,0.20139386666666667,-1.0988445666666666,0.024513625333333334,-2.622139,1.5073099999999997,7.1987414
2026-05-10 11:32:28.870,832,0.4358791,-1.1209191,0.049759,-2.622139,1.50731,7.1987414
2026-05-10 11:32:28.880,833,0.63006725,-1.1233735,0.06122308375,-2.8038714,1.0955868,7.6628466
2026-05-10 11:32:28.890,834,1.481656575,-1.1125038999999999,0.1358158525,-2.8948903,0.818941215,7.53387765
2026-05-10 11:32:28.900,835,1.7687008000000002,-1.0787824,0.19293809000000003,-3.0427198,0.37003163,7.3361860000000005
2026-05-10 11:32:28.910,836,1.7972848000000001,-0.96865405,0.29812715,-3.15416455,0.0681114755,7.40032675
2026-05-10 11:32:28.920,837,1.9132824,-0.919428675,0.4052370625,-3.4054592,0.11820241849999999,7.5921385
2026-05-10 11:32:28.930,838,2.1313438,-0.9066383,0.5439342,-3.8606684,0.71578133,7.804109
2026-05-10 11:32:28.940,839,2.0959961999999996,-0.8907024099999999,0.5602156333333334,-3.938451933333333,0.9039278533333333,7.749538333333334
2026-05-10 11:32:28.950,840,1.8844391666666667,-0.8587086533333333,0.5969250766666666,-4.155563566666667,1.2694798,7.7051488
2026-05-10 11:32:28.960,841,2.573763,-0.41199050125000003,0.9286975074999999,-3.64060415,-0.25587619,8.242710500000001
2026-05-10 11:32:28.970,842,3.5702085,0.28147984,0.9759106599999999,-2.5279640000000003,-1.0836750333333331,7.077383133333332
2026-05-10 11:32:28.980,843,3.3006804,0.5580813,0.76870334,-2.2402337,-1.0189614675,6.361856275
2026-05-10 11:32:28.990,844,2.751684975,0.668163975,0.766416665,-1.909106525,-0.3152446425,4.403384125
2026-05-10 11:32:29.000,845,2.1550038,0.822426,0.8967595999999999,-1.8903223999999998,-0.17974710000000002,4.1250205
2026-05-10 11:32:29.010,846,2.1550038,0.822426,0.8967596,-1.778075975,-0.13267229549999998,3.921029575
2026-05-10 11:32:29.020,847,2.0951375249999997,0.8795025,0.92516065,-1.41533658,-0.3075324705,3.881285075
2026-05-10 11:32:29.030,848,2.2516556,1.2537926,0.79608303,-0.43936482,-0.8791878,3.9660425
2026-05-10 11:32:29.040,849,2.5960202249999997,1.4240922,0.654885765,-0.45517096749999997,-0.8089382975,3.5347716499999997
2026-05-10 11:32:29.050,850,3.289643,1.7590051,0.4237442,-0.86903219,-0.3215441875,2.054530625
2026-05-10 11:32:29.060,851,3.31094,1.748943525,0.4455899875,-0.946383,-0.24312437,1.8741345
2026-05-10 11:32:29.070,852,3.263950533333333,1.6966437,0.5667810233333334,-1.6027577,0.72418076,0.26923886
2026-05-10 11:32:29.080,853,2.6685551,1.528717275,1.1281908675,-1.23043535,1.123113925,-1.3238595
2026-05-10 11:32:29.090,854,2.6655214,1.4621586,1.3591647,0.4457789,0.17562376,-1.755474
2026-05-10 11:32:29.100,855,2.795996433333333,1.4779318333333336,1.197265,0.7469354666666667,0.068366,-1.8500054
2026-05-10 11:32:29.110,856,3.193875425,1.4723877250000001,0.6942783,1.9309832,0.0327194675,-2.8909960750000003
2026-05-10 11:32:29.120,857,3.260983,1.13370944,0.2338093675,1.6843082,0.3474296,-4.6459355
2026-05-10 11:32:29.130,858,3.17299,0.92657846,0.19854817,1.4199562,0.33078352,-4.946023
2026-05-10 11:32:29.140,859,3.17299,0.92657846,0.19854817,1.376699325,0.33162346,-5.01856325
2026-05-10 11:32:29.150,860,3.0906071999999996,0.7740086,0.20562175000000002,1.1726576666666666,0.34956762999999996,-5.328323
2026-05-10 11:32:29.160,861,2.9601117500000003,0.7101634,0.20104831499999998,1.0241156,0.38041633,-5.512601
2026-05-10 11:32:29.170,862,2.3348923,0.576619,0.17190027,0.56375226,0.486019665,-5.59544915
2026-05-10 11:32:29.180,863,2.2186863666666667,0.5538128,0.21161803333333332,0.2797253883333333,0.61743205,-5.610033666666666
2026-05-10 11:32:29.190,864,1.9379027249999998,0.4876351675,0.31794537,-0.036155581250000006,0.9373727375,-5.660163000000001
2026-05-10 11:32:29.200,865,1.7565963,0.401090475,0.43981222,-0.38644861500000005,1.51364775,-5.738468
2026-05-10 11:32:29.210,866,1.5255768,0.2084268,0.597108,0.018325957,1.9538525,-5.95166
2026-05-10 11:32:29.220,867,1.2387918,0.0016464376,0.57881427,0.36819902,2.1253529,-5.986174000000001
2026-05-10 11:32:29.230,868,0.8991531,-0.1877395975,0.507834495,0.5526803299999999,2.1967478,-5.95166
2026-05-10 11:32:29.240,869,0.600096,-0.3561793,0.42002448,1.6471981,2.143068,-5.494122
2026-05-10 11:32:29.250,870,0.5464038449999999,-0.4299946,0.23118726,2.2430209000000003,1.869553125,-4.931973225
2026-05-10 11:32:29.260,871,0.5716187,-0.4656369,0.09488358000000001,2.4469736,1.8266398,-4.680602
2026-05-10 11:32:29.270,872,0.5716187,-0.4656369,0.09488358,2.4469736,1.8266398,-4.680602
2026-05-10 11:32:29.280,873,0.5716187,-0.4656369,0.09488358,2.3612996500000003,2.0060051,-4.611498
2026-05-10 11:32:29.290,874,0.5930630666666666,-0.5245428333333334,-0.033863764666666664,2.2224295,2.2666155333333333,-4.5137851
2026-05-10 11:32:29.300,875,0.52568618,-0.584637775,-0.0663910695,2.1160371,2.4291058,-4.4565673
2026-05-10 11:32:29.310,876,0.378406225,-0.70260195,0.023111105,2.7034222999999997,1.7712801875,-3.557220925
2026-05-10 11:32:29.320,877,0.06646729,-0.9133460000000001,0.0069516255,3.799531,0.41813726333333334,-2.907769566666667
2026-05-10 11:32:29.330,878,0.017851647499999998,-0.9234380625,-0.016754025875000002,4.3521094,-0.30665436,-2.5720482
2026-05-10 11:32:29.340,879,-0.8628247500000001,-0.9319599,-0.57640559,3.409468,-1.4788284150000002,-0.5509241144999999
2026-05-10 11:32:29.350,880,-1.0760587000000001,-0.8678351833333333,-0.6831496333333332,3.0952542,-1.8695531,0.122783914
2026-05-10 11:32:29.360,881,-1.0767701,-0.84163445,-0.6624777,2.190448225,-1.46378585,0.78286198
2026-05-10 11:32:29.370,882,-1.0875025,-0.72540814,-0.49618748,1.02293207,-0.755678495,1.63311005
2026-05-10 11:32:29.380,883,-1.0875025,-0.72540814,-0.49618747999999996,0.39950588,-0.23671027999999997,2.1644483
2026-05-10 11:32:29.390,884,-1.0875025,-0.72540814,-0.49618748,0.39950588,-0.23671028,2.1644483
2026-05-10 11:32:29.400,885,-1.054345,-0.71502646,-0.423698495,0.39950588,-0.23671028,2.1644483
2026-05-10 11:32:29.410,886,-1.0432925,-0.7115659,-0.3995355,0.07261661,0.13366496500000002,2.500653225
2026-05-10 11:32:29.420,887,-1.0432925,-0.7115659,-0.3995355,-0.9080512,1.2447907,3.509268
2026-05-10 11:32:29.430,888,-0.910662825,-0.8154286749999999,-0.3363610875,-0.976697175,1.29938675,3.5914675750000002
2026-05-10 11:32:29.440,889,-0.37767446,-1.1966857,-0.09756667499999999,-2.52569865,2.085990225,6.139500999999999
2026-05-10 11:32:29.450,890,-0.24257512,-1.2663544,-0.0482955,-2.664136,2.1233675,6.461427
2026-05-10 11:32:29.460,891,-0.24257512,-1.2663544,-0.0482955,-2.664136,2.1233675,6.461427
2026-05-10 11:32:29.470,892,0.5589960199999999,-1.4511517999999999,0.06738197800000001,-3.2914564000000004,1.9967657,7.748825425
2026-05-10 11:32:29.480,893,0.99518,-1.4999046,0.109884456,-3.7601427000000003,1.7332155500000002,8.74801
2026-05-10 11:32:29.490,894,1.9938765666666665,-1.3160931,0.21346773,-4.010228433333333,1.2457578,9.157226333333334
2026-05-10 11:32:29.500,895,2.469885075,-1.1311941499999998,0.2048595125,-4.0515637,1.103528,9.149387
2026-05-10 11:32:29.510,896,2.640779125,-0.8972170399999999,0.2156833175,-4.8039205250000006,0.48674506,8.5482955
2026-05-10 11:32:29.520,897,2.5764918,-0.58503413,0.19988972,-6.1501913,0.63621616,7.829002
2026-05-10 11:32:29.530,898,2.5590314,-0.6054621533333333,0.22428139,-6.1501913,0.63621616,7.829002
2026-05-10 11:32:29.540,899,2.54966095,-0.64095202,0.41267654,-6.1501913,0.63621616,7.829002
2026-05-10 11:32:29.550,900,2.532312425,-0.56062721,0.724295285,-6.0407700250000005,0.44963501,7.06545835
2026-05-10 11:32:29.560,901,2.2418382,-0.4942818875,0.8207795625,-5.7656517,0.19532417,6.7943487
2026-05-10 11:32:29.570,902,1.8429734,-0.43240327,0.84346384,-4.8181996,-0.6824892,6.7140200000000005
2026-05-10 11:32:29.580,903,1.8429734,-0.43240327,0.84346384,-4.621844625,-0.847613725,6.79076
2026-05-10 11:32:29.590,904,2.1492107,-0.15159421,0.82169431,-3.4799084,-1.72718335,7.054195575
2026-05-10 11:32:29.600,905,2.7811582666666665,0.5845666033333333,1.1273016,-1.957466733333333,-2.6890289333333333,6.684596533333334
2026-05-10 11:32:29.610,906,3.27519105,1.17070855,1.3291629500000002,-1.6496416,-2.8544207,6.5199175
2026-05-10 11:32:29.620,907,3.608442,1.5731405,1.2468411,0.4503604,-2.1423044,3.779576
2026-05-10 11:32:29.630,908,3.3692006666666665,1.6055000999999998,1.0230069,0.8122980600000002,-1.2554808,2.2389739
2026-05-10 11:32:29.640,909,3.03997935,1.548947,0.82558175,0.817261345,-1.0762682,1.890551615
2026-05-10 11:32:29.650,910,2.302283675,1.231581,0.3670641,0.459332485,-0.32868368,0.6548093374999999
2026-05-10 11:32:29.660,911,2.2699494,1.1930574,0.27458918,0.140689895,-0.16581173500000002,0.5432119075
2026-05-10 11:32:29.670,912,2.2699494,1.1930574,0.27458918,-0.25518895333333336,0.06719518000000001,0.43580144000000004
2026-05-10 11:32:29.680,913,2.433770025,1.16086035,0.33317492,-0.91736686,0.47128254,0.25305092
2026-05-10 11:32:29.690,914,2.7113776,1.1009789,0.57064307,-1.3584116,1.0135782,-0.03863723
2026-05-10 11:32:29.700,915,2.7113776,1.1009789,0.57064307,-1.3542882666666667,1.0586804166666666,-0.08908451833333333
2026-05-10 11:32:29.710,916,2.7113776,1.1009789,0.57064307,-1.3501649333333332,1.1037826333333334,-0.13953180666666667
2026-05-10 11:32:29.720,917,2.7113776,1.1009789,0.57064307,-1.3460416,1.14888485,-0.18997909500000001
2026-05-10 11:32:29.730,918,2.7113776,1.1009789,0.57064307,-1.3336716,1.2841915,-0.34132096
2026-05-10 11:32:29.740,919,2.76102995,1.1018478250000001,0.6295032025,-1.3336716,1.2841915,-0.34132096
2026-05-10 11:32:29.750,920,3.0641117,1.1637264250000001,1.076328025,-0.9179014,1.127580915,-0.67347893
2026-05-10 11:32:29.760,921,3.1393294,1.1805770333333332,1.2030173333333334,0.11433361999999998,0.59304835,-1.3241013666666666
2026-05-10 11:32:29.770,922,3.3076932,1.1549454,1.2143391,1.6183348,-0.22540927,-2.0282254
2026-05-10 11:32:29.780,923,3.3775752,1.06773,0.671441595,2.862018175,-0.5353852125,-3.29382355
2026-05-10 11:32:29.790,924,3.343061,0.9604829,0.30306646,2.8715248,-0.4198171499999999,-3.7681222
2026-05-10 11:32:29.800,925,3.343061,0.9604829,0.30306646,2.7068965,-0.28893927,-4.107305
2026-05-10 11:32:29.810,926,3.2504945,0.829911275,0.1478897275,2.41444475,-0.17157678,-4.378453
2026-05-10 11:32:29.820,927,3.2196389999999995,0.7863874000000001,0.09616415,2.121993,-0.05421429,-4.649601
2026-05-10 11:32:29.830,928,3.0658191,0.613755335,0.017394307875,1.63028475,0.08185594499999999,-4.899979125
2026-05-10 11:32:29.840,929,2.9750516,0.5189327,-0.014635001,1.12109043,0.21296290499999998,-5.11805795
2026-05-10 11:32:29.850,930,2.8911036666666665,0.42437436666666667,0.021789889666666663,0.38107810666666664,0.38739038666666664,-5.425247133333333
2026-05-10 11:32:29.860,931,2.42532455,0.171199009,0.1913831275,0.029856042499999985,0.494419065,-5.60400165
2026-05-10 11:32:29.870,932,2.1221972,0.084212236,0.2505634,-0.43172902,0.6824892,-5.8814106
2026-05-10 11:32:29.880,933,1.9562321666666669,0.049819983333333324,0.2894071333333333,-0.4490368666666667,0.7688248333333334,-5.806477866666666
2026-05-10 11:32:29.890,934,1.54295585,-0.042380521,0.405633415,-0.35987599000000003,1.0370965,-5.53863885
2026-05-10 11:32:29.900,935,1.453072525,-0.07684899349999999,0.45008721,-0.2080377975,1.1510992,-5.410471575
2026-05-10 11:32:29.910,936,1.38062935,-0.178287836,0.47876271,0.27641651749999996,1.39987405,-5.354959225
2026-05-10 11:32:29.920,937,1.25674,-0.26843029333333335,0.4667142366666666,0.82741696,1.3975069666666666,-5.355964533333332
2026-05-10 11:32:29.930,938,1.0004852125,-0.39607493250000003,0.411548395,1.65796455,0.824438975,-5.2616115
2026-05-10 11:32:29.940,939,0.725438655,-0.51002976,0.26821687,2.1778109,0.23296872500000002,-5.087744
2026-05-10 11:32:29.950,940,0.6705879,-0.5985105,0.16354613,2.81278,-0.7352781299999999,-4.5579712
2026-05-10 11:32:29.960,941,0.616895755,-0.82465177,-0.10515857,2.6445882750000003,-0.6275113250000001,-4.3357687
2026-05-10 11:32:29.970,942,0.6057061,-0.94414043,-0.19299906,2.07732365,-0.56581395,-4.3633339499999995
2026-05-10 11:32:29.980,943,0.54373603,-0.9865819325,-0.12874227,1.73455185,-0.47716212,-4.4148758
2026-05-10 11:32:29.990,944,0.52307934,-1.0007291,-0.10732334,1.6223054,-0.42546764,-4.428773
2026-05-10 11:32:30.000,945,0.21659799,-1.0518296,0.10842097,1.5173893000000003,-0.3633121000000001,-4.3826528
2026-05-10 11:32:30.010,946,-0.047472282500000004,-1.018778935,0.19961531500000002,1.763300725,-0.3615558575,-4.0385065
2026-05-10 11:32:30.020,947,-0.34941062,-0.9554825399999999,0.29587093,2.0880902,-0.39645153,-3.6624427
2026-05-10 11:32:30.030,948,-0.477146735,-0.9193066350000001,0.2903370625,2.4465153,-0.5007568,-3.2966871
2026-05-10 11:32:30.040,949,-0.733076305,-0.82007832,0.102353531,2.760347325,-0.6213644724999999,-2.911040175
2026-05-10 11:32:30.050,950,-0.9528909999999999,-0.602535175,-0.405267565,3.0498976,-0.8629235150000001,-2.17857455
2026-05-10 11:32:30.060,951,-0.89149506,-0.50675724,-0.61340976,1.2462159866666667,-1.4307482333333332,-1.0984884333333333
2026-05-10 11:32:30.070,952,-0.8477323800000001,-0.513627525,-0.49609601999999997,-0.23564126000000002,-1.03770732,-0.765566875
2026-05-10 11:32:30.080,953,-0.92377342,-0.5759787125,-0.2407609925,-1.0507646,-0.44219009499999995,-0.34613153249999995
2026-05-10 11:32:30.090,954,-1.171425025,-0.817227575,0.3940321375,-2.7839421,1.32534845,1.058629485
2026-05-10 11:32:30.100,955,-1.2020214,-0.9754838,0.5664965,-2.8754954,2.541352,2.816547
2026-05-10 11:32:30.110,956,-1.2020214,-0.9754838,0.5664965,-2.8754954,2.541352,2.816547
2026-05-10 11:32:30.120,957,-1.14639311,-1.1323069000000001,0.5582795174999999,-2.5547912,2.7140744,3.9936843
2026-05-10 11:32:30.130,958,-0.9151143933333333,-1.3155848333333333,0.44663174,-2.0961331333333333,2.2882503,5.584275733333333
2026-05-10 11:32:30.140,959,0.61477671,-1.6355069500000001,0.2001336275,-1.7565812250000001,0.81848305,9.08589475
2026-05-10 11:32:30.150,960,1.7749815,-1.5885378,0.11784223999999999,-2.060524825,0.577420395,9.683435
2026-05-10 11:32:30.160,961,2.180066,-1.5242352,0.07604102,-2.1253529,0.56581396,9.683435
2026-05-10 11:32:30.170,962,2.8386869499999996,-1.1792303375,-0.057930207750000004,-2.931465925,0.6618725,8.221559125
2026-05-10 11:32:30.180,963,2.7007065,-0.96517825,-0.046466127,-3.5877643,0.7910705,7.019147
2026-05-10 11:32:30.190,964,2.220861225,-0.7485345325,0.24724004324999999,-3.9739837749999998,0.7270441774999999,6.75548225
2026-05-10 11:32:30.200,965,2.0609128,-0.6763199600000002,0.34514210000000006,-4.053548966666667,0.5477424966666666,6.740439766666667
2026-05-10 11:32:30.210,966,2.070288475,-0.5060508525,0.38221742,-3.836424675,-0.15290721000000002,6.9744393
2026-05-10 11:32:30.220,967,2.3734007000000004,-0.193486895,0.59506521,-3.0905964,-0.740368665,6.8154235
2026-05-10 11:32:30.230,968,2.7417047333333335,0.18159595666666664,0.8323250066666666,-2.3843598,-1.1995866,6.626971700000001
2026-05-10 11:32:30.240,969,2.877363,0.34965453,0.9212733,-2.0956496,-1.3340532999999999,6.46807035
2026-05-10 11:32:30.250,970,2.9786646,0.4915073325,0.98024015,-1.8069394,-1.46852,6.309169
2026-05-10 11:32:30.260,971,3.2825694,0.91706574,1.1571407,-0.6053675,-1.8619173,5.4588447
2026-05-10 11:32:30.270,972,3.2119708,1.082807105,0.9968722,-0.32967636499999997,-1.908915725,5.155855450000001
2026-05-10 11:32:30.280,973,2.716652325,1.61558205,0.40064838,0.47238972,-1.31229128,2.566168575
2026-05-10 11:32:30.290,974,2.57426605,1.5467670500000001,0.46978352,-0.34063373500000005,-0.06284276,1.3872749
2026-05-10 11:32:30.300,975,2.5708208,1.5383214,0.48313794,-0.47978375,0.4400266,0.7411831266666665
2026-05-10 11:32:30.310,976,2.5463681,1.5395105500000001,0.40416991999999996,-0.52946746,0.602924,0.49663344
2026-05-10 11:32:30.320,977,2.6280191000000004,1.336907225,0.387126235,-0.66920286,0.72250086,0.23793201
2026-05-10 11:32:30.330,978,2.663387,1.2689764,0.40776768,-0.66920286,0.7225008599999999,0.23793201
2026-05-10 11:32:30.340,979,2.6522583500000003,1.26452495,0.46856389,-0.66920286,0.72250086,0.23793201
2026-05-10 11:32:30.350,980,2.678784275,1.268107525,0.55137359,-0.15951218,0.3743840425,-0.8824712225
2026-05-10 11:32:30.360,981,2.960508125,1.2430451500000002,0.60026369,0.925384475,-0.46475393,-1.913039125
2026-05-10 11:32:30.370,982,3.0167615,1.226657,0.5945469,1.0797043,-0.56688297,-2.0486894
2026-05-10 11:32:30.380,983,2.897867275,1.07157165,0.23031832,1.09795388,-0.3988950175,-2.6894869750000003
2026-05-10 11:32:30.390,984,2.824265425,0.8486318500000001,0.08995951,0.6788239775,-0.16371188650000001,-3.2654947500000002
2026-05-10 11:32:30.400,985,2.725585966666667,0.7507755333333334,0.21173998666666669,0.036346480666666674,-0.04311690466666666,-3.638007933333333
2026-05-10 11:32:30.410,986,2.518759775,0.6823416375,0.40281311,-0.326927441,-0.0192422545,-3.9132027750000002
2026-05-10 11:32:30.420,987,2.4600825,0.66162395,0.45838037,-0.5225952,0.15577064,-4.118148
2026-05-10 11:32:30.430,988,2.214077325,0.5866958499999999,0.609014175,-0.5225952,0.15577064,-4.118148
2026-05-10 11:32:30.440,989,2.12702955,0.56818865,0.6467145325,-0.5493206,0.45646906,-4.242001
2026-05-10 11:32:30.450,990,1.7631720333333334,0.48224355333333335,0.7587841166666666,-0.3776165333333334,0.9958630999999999,-4.364581133333334
2026-05-10 11:32:30.460,991,1.6601579,0.45209953,0.78376526,-0.07315111,1.3683381,-4.4112105
2026-05-10 11:32:30.470,992,1.6180975,0.4349948825,0.7794204825,0.0398971375,1.41445845,-4.42442045
2026-05-10 11:32:30.480,993,1.3091007,0.27416235,0.70351666,1.0349585,1.486846,-4.5564437
2026-05-10 11:32:30.490,994,1.2463735,0.22281789,0.6836374866666667,1.2757411666666665,1.4159856666666666,-4.5845437
2026-05-10 11:32:30.500,995,1.11059835,0.1245651975,0.5847444875000001,1.902043425,1.18584215,-4.577747975
2026-05-10 11:32:30.510,996,1.0757945,0.10037171,0.55509335,2.1636846,1.0853548000000002,-4.56155995
2026-05-10 11:32:30.520,997,1.0081991000000001,-0.07030897750000001,0.38020511749999997,2.6098071750000003,0.933058475,-4.569730175
2026-05-10 11:32:30.530,998,0.87767315,-0.23812364,0.19897503000000002,2.7275133,0.894154,-4.5755334
2026-05-10 11:32:30.540,999,0.87767315,-0.23812364,0.19897503,2.8970284,0.84711736,-4.547128
2026-05-10 11:32:30.550,1000,0.7947110374999999,-0.3520022575,0.13029723,3.0596712999999998,0.65675649,-4.480314849999999
