timestamp,id,acc_x,acc_y,acc_z,gyro_x,gyro_y,gyro_z
2026-05-10 20:53:22.570,1,-0.28409788,0.5135627,0.8211009,0.0,0.0,0.0
2026-05-10 20:53:22.580,2,-0.28409788,0.5135627,0.8211009,0.0,0.0,0.0
2026-05-10 20:53:22.590,3,-0.28409788,0.5135627,0.8211009,0.0,0.0,0.0
2026-05-10 20:53:22.600,4,-0.26555046,0.4811468,0.77492356,0.0,0.0,0.0
2026-05-10 20:53:22.610,5,-0.26555046,0.4811468,0.77492356,0.0,0.0,0.0
2026-05-10 20:53:22.620,6,-0.26555046,0.4811468,0.77492356,0.0,0.0,0.0
2026-05-10 20:53:22.630,7,-0.26555046,0.48114680000000004,0.77492356,0.0,0.0,0.0
2026-05-10 20:53:22.640,8,-0.26555046,0.4811468,0.77492356,0.0,0.0,0.0
2026-05-10 20:53:22.650,9,-0.15065749,0.47328743,0.7337462,0.0,0.0,0.0
2026-05-10 20:53:22.660,10,-0.15065749,0.47328743,0.7337462,0.0,0.0,0.0
2026-05-10 20:53:22.670,11,-0.15065749,0.47328743,0.7337462,0.0,0.0,0.0
2026-05-10 20:53:22.680,12,-0.15065749,0.47328743,0.7337462,0.0,0.0,0.0
2026-05-10 20:53:22.690,13,-0.15065749,0.47328743,0.7337462,0.0,0.0,0.0
2026-05-10 20:53:22.700,14,-0.11647808066666666,0.46486746333333334,0.7675892000000001,0.0,0.0,0.0
2026-05-10 20:53:22.710,15,-0.099388376,0.46065748,0.7845106999999999,0.0,0.0,0.0
2026-05-10 20:53:22.720,16,-0.099388376,0.46065748,0.7845107,0.0,0.0,0.0
2026-05-10 20:53:22.730,17,-0.099388376,0.46065748,0.7845106999999999,0.0,0.0,0.0
2026-05-10 20:53:22.740,18,-0.27798167,0.45331803,0.8832875000000001,0.0,0.0,0.0
2026-05-10 20:53:22.750,19,-0.27798167,0.45331803,0.8832875,0.0,0.0,0.0
2026-05-10 20:53:22.760,20,-0.27798167,0.45331803,0.8832875000000001,0.0,0.0,0.0
2026-05-10 20:53:22.770,21,-0.27798167,0.45331803,0.8832875000000001,0.0,0.0,0.0
2026-05-10 20:53:22.780,22,-0.27798167,0.45331803,0.8832875,0.0,0.0,0.0
2026-05-10 20:53:22.790,23,-0.27798167,0.45331803,0.8832875000000001,0.0,0.0,0.0
2026-05-10 20:53:22.800,24,-0.27798167,0.45331803,0.8832875,0.0,0.0,0.0
2026-05-10 20:53:22.810,25,-0.27798167,0.45331803,0.8832875000000001,0.0,0.0,0.0
2026-05-10 20:53:22.820,26,-0.27798167,0.45331803,0.8832875000000001,0.0,0.0,0.0
2026-05-10 20:53:22.830,27,-0.27798167,0.45331803,0.8832875,0.0,0.0,0.0
2026-05-10 20:53:22.840,28,-0.27798167,0.45331803,0.8832875000000001,0.0,0.0,0.0
2026-05-10 20:53:22.850,29,-0.27798167,0.45331803,0.8832875,0.0,0.0,0.0
2026-05-10 20:53:22.860,30,-0.27798167,0.45331803,0.8832875,0.0,0.0,0.0
2026-05-10 20:53:22.870,31,-0.27798167,0.45331803,0.8832875,0.0,0.0,0.0
2026-05-10 20:53:22.880,32,-0.27798167,0.45331803,0.8832875000000001,0.0,0.0,0.0
2026-05-10 20:53:22.890,33,-0.39597476,0.5022668225,1.0144457500000001,0.0,0.0,0.0
2026-05-10 20:53:22.900,34,-0.39766055000000006,0.506315,1.038838,0.0,0.0,0.0
2026-05-10 20:53:22.910,35,-0.39766055000000006,0.506315,1.038838,0.0,0.0,0.0
2026-05-10 20:53:22.920,36,-0.39766055,0.506315,1.038838,0.0,0.0,0.0
2026-05-10 20:53:22.930,37,-0.39766055000000006,0.506315,1.038838,0.0,0.0,0.0
2026-05-10 20:53:22.940,38,-0.39766055000000006,0.506315,1.038838,0.0,0.0,0.0
2026-05-10 20:53:22.950,39,-0.33077982,0.50703365,1.0448471,0.0,0.0,0.0
2026-05-10 20:53:22.960,40,-0.33077982,0.50703365,1.0448471,0.0,0.0,0.0
2026-05-10 20:53:22.970,41,-0.33077982,0.50703365,1.0448471,0.0,0.0,0.0
2026-05-10 20:53:22.980,42,-0.30879714666666663,0.5047553666666666,1.0115137666666667,0.0,0.0,0.0
2026-05-10 20:53:22.990,43,-0.2648318,0.5001988,0.9448471,0.0,0.0,0.0
2026-05-10 20:53:23.000,44,-0.2648318,0.5001988,0.9448471,0.0,0.0,0.0
2026-05-10 20:53:23.010,45,-0.2648318,0.5001988,0.9448471,0.0,0.0,0.0
2026-05-10 20:53:23.020,46,-0.2648318,0.5001988,0.9448471,0.0,0.0,0.0
2026-05-10 20:53:23.030,47,-0.2648318,0.5001988,0.9448471,0.0,0.0,0.0
2026-05-10 20:53:23.040,48,-0.21631499,0.48695716,0.85545874,0.0,0.0,0.0
2026-05-10 20:53:23.050,49,-0.21631499,0.48695716,0.85545874,0.0,0.0,0.0
2026-05-10 20:53:23.060,50,-0.21631499,0.48695716,0.85545874,0.0,0.0,0.0
2026-05-10 20:53:23.070,51,-0.21631499,0.48695716,0.85545874,0.0,0.0,0.0
2026-05-10 20:53:23.080,52,-0.21631499,0.48695716,0.85545874,0.0,0.0,0.0
2026-05-10 20:53:23.090,53,-0.21631499,0.48695716,0.85545874,0.0,0.0,0.0
2026-05-10 20:53:23.100,54,-0.20747707,0.48518348666666666,0.8466921133333333,0.0,0.0,0.0
2026-05-10 20:53:23.110,55,-0.20305811000000004,0.48429664999999994,0.8423088,0.0,0.0,0.0
2026-05-10 20:53:23.120,56,-0.20305811,0.48429665,0.8423088,0.0,0.0,0.0
2026-05-10 20:53:23.130,57,-0.20305811000000004,0.48429664999999994,0.8423088,0.0,0.0,0.0
2026-05-10 20:53:23.140,58,-0.20305811,0.48429665,0.8423088,0.0,0.0,0.0
2026-05-10 20:53:23.150,59,-0.20305811000000004,0.48429664999999994,0.8423088,0.0,0.0,0.0
2026-05-10 20:53:23.160,60,-0.20305811000000004,0.48429664999999994,0.8423088,0.0,0.0,0.0
2026-05-10 20:53:23.170,61,-0.20305811,0.48429665,0.8423088,0.0,0.0,0.0
2026-05-10 20:53:23.180,62,-0.20305811000000004,0.48429664999999994,0.8423088,0.0,0.0,0.0
2026-05-10 20:53:23.190,63,-0.20305811,0.48429665,0.8423088,0.0,0.0,0.0
2026-05-10 20:53:23.200,64,-0.20305811000000004,0.48429664999999994,0.8423088,0.0,0.0,0.0
2026-05-10 20:53:23.210,65,-0.20305811000000004,0.48429664999999994,0.8423088,0.0,0.0,0.0
2026-05-10 20:53:23.220,66,-0.20305811,0.48429665,0.8423088,0.0,0.0,0.0
2026-05-10 20:53:23.230,67,-0.20305811000000004,0.48429664999999994,0.8423088,0.0,0.0,0.0
2026-05-10 20:53:23.240,68,-0.20305811000000004,0.48429664999999994,0.8423088,0.0,0.0,0.0
2026-05-10 20:53:23.250,69,-0.20305811,0.48429665,0.8423088,0.0,0.0,0.0
2026-05-10 20:53:23.260,70,-0.20305811000000004,0.48429664999999994,0.8423088,0.0,0.0,0.0
2026-05-10 20:53:23.270,71,-0.20305811000000004,0.48429664999999994,0.8423088,0.0,0.0,0.0
2026-05-10 20:53:23.280,72,-0.20305811,0.48429665,0.8423088,0.0,0.0,0.0
2026-05-10 20:53:23.290,73,-0.20224261666666665,0.47797657000000005,0.8369367666666667,0.0,0.0,0.0
2026-05-10 20:53:23.300,74,-0.20183487,0.47481653,0.83425075,0.0,0.0,0.0
2026-05-10 20:53:23.310,75,-0.20183487,0.47481653,0.8342507500000002,0.0,0.0,0.0
2026-05-10 20:53:23.320,76,-0.20183487,0.47481653,0.8342507500000002,0.0,0.0,0.0
2026-05-10 20:53:23.330,77,-0.20183487,0.47481653,0.83425075,0.0,0.0,0.0
2026-05-10 20:53:23.340,78,-0.20183487,0.47481653,0.8342507500000002,0.0,0.0,0.0
2026-05-10 20:53:23.350,79,-0.20183487,0.47481653,0.83425075,0.0,0.0,0.0
2026-05-10 20:53:23.360,80,-0.20183487,0.47481653,0.8342507500000002,0.0,0.0,0.0
2026-05-10 20:53:23.370,81,-0.20183487,0.47481653,0.8342507500000002,0.0,0.0,0.0
2026-05-10 20:53:23.380,82,-0.20183487,0.47481653,0.83425075,0.0,0.0,0.0
2026-05-10 20:53:23.390,83,-0.20183487,0.47481653,0.8342507500000002,0.0,0.0,0.0
2026-05-10 20:53:23.400,84,-0.20183487,0.47481653,0.83425075,0.0,0.0,0.0
2026-05-10 20:53:23.410,85,-0.20183487,0.47481653,0.8342507500000002,0.0,0.0,0.0
2026-05-10 20:53:23.420,86,-0.20183487,0.47481653,0.83425075,0.0,0.0,0.0
2026-05-10 20:53:23.430,87,-0.20183487,0.47481653,0.8342507500000002,0.0,0.0,0.0
2026-05-10 20:53:23.440,88,-0.20183487,0.47481653,0.8342507500000002,0.0,0.0,0.0
2026-05-10 20:53:23.450,89,-0.20183487,0.47481653,0.83425075,0.0,0.0,0.0
2026-05-10 20:53:23.460,90,-0.20183487,0.47481653,0.8342507500000002,0.0,0.0,0.0
2026-05-10 20:53:23.470,91,-0.20183487,0.47481653,0.83425075,0.0,0.0,0.0
2026-05-10 20:53:23.480,92,-0.20183487,0.47481653,0.8342507500000002,0.0,0.0,0.0
2026-05-10 20:53:23.490,93,-0.20183487,0.47481653,0.83425075,0.0,0.0,0.0
2026-05-10 20:53:23.500,94,-0.20183487,0.47481653,0.8342507500000002,0.0,0.0,0.0
2026-05-10 20:53:23.510,95,-0.20183487,0.47481653,0.8342507500000002,0.0,0.0,0.0
2026-05-10 20:53:23.520,96,-0.20183487,0.47481653,0.83425075,0.0,0.0,0.0
2026-05-10 20:53:23.530,97,-0.20183487,0.47481653,0.8342507500000002,0.0,0.0,0.0
2026-05-10 20:53:23.540,98,-0.20183487,0.47481653,0.83425075,0.0,0.0,0.0
2026-05-10 20:53:23.550,99,-0.20183487,0.47481653,0.8342507500000002,0.0,0.0,0.0
2026-05-10 20:53:23.560,100,-0.20183487,0.47481653,0.8342507500000002,0.0,0.0,0.0
2026-05-10 20:53:23.570,101,-0.20183487,0.47481653,0.83425075,0.0,0.0,0.0
2026-05-10 20:53:23.580,102,-0.20183487,0.47481653,0.8342507500000002,0.0,0.0,0.0
2026-05-10 20:53:23.590,103,-0.20183487,0.47481653,0.83425075,0.0,0.0,0.0
2026-05-10 20:53:23.600,104,-0.20183487,0.47481653,0.8342507500000002,0.0,0.0,0.0
2026-05-10 20:53:23.610,105,-0.211599396,0.477244656,0.8471957100000002,0.0,0.0,0.0
2026-05-10 20:53:23.620,106,-0.221363922,0.479672782,0.86014067,0.0,0.0,0.0
2026-05-10 20:53:23.630,107,-0.231128448,0.482100908,0.8730856300000001,0.0,0.0,0.0
2026-05-10 20:53:23.640,108,-0.24089297399999998,0.484529034,0.88603059,0.0,0.0,0.0
2026-05-10 20:53:23.650,109,-0.2506575,0.48695716,0.89897555,0.0,0.0,0.0
2026-05-10 20:53:23.660,110,-0.2506575,0.48695716,0.89897555,0.0,0.0,0.0
2026-05-10 20:53:23.670,111,-0.2506575,0.48695716,0.89897555,0.0,0.0,0.0
2026-05-10 20:53:23.680,112,-0.2506575,0.48695716,0.89897555,0.0,0.0,0.0
2026-05-10 20:53:23.690,113,-0.2506575,0.48695716,0.89897555,0.0,0.0,0.0
2026-05-10 20:53:23.700,114,-0.2506575,0.48695716,0.89897555,0.0,0.0,0.0
2026-05-10 20:53:23.710,115,-0.2506575,0.48695716,0.89897555,0.0,0.0,0.0
2026-05-10 20:53:23.720,116,-0.2506575,0.48695716,0.89897555,0.0,0.0,0.0
2026-05-10 20:53:23.730,117,-0.2506575,0.48695716,0.89897555,0.0,0.0,0.0
2026-05-10 20:53:23.740,118,-0.2506575,0.48695716,0.89897555,0.0,0.0,0.0
2026-05-10 20:53:23.750,119,-0.2506575,0.48695716,0.89897555,0.0,0.0,0.0
2026-05-10 20:53:23.760,120,-0.2506575,0.48695716,0.89897555,0.0,0.0,0.0
2026-05-10 20:53:23.770,121,-0.2506575,0.48695716,0.89897555,0.0,0.0,0.0
2026-05-10 20:53:23.780,122,-0.2506575,0.48695716,0.89897555,0.0,0.0,0.0
2026-05-10 20:53:23.790,123,-0.2506575,0.48695716,0.89897555,0.0,0.0,0.0
2026-05-10 20:53:23.800,124,-0.24325178999999997,0.47037204,0.9110041,0.0,0.0,0.0
2026-05-10 20:53:23.810,125,-0.22844037000000003,0.4372018,0.9350612000000001,0.0,0.0,0.0
2026-05-10 20:53:23.820,126,-0.22844037,0.4372018,0.9350612,0.0,0.0,0.0
2026-05-10 20:53:23.830,127,-0.22844037000000003,0.4372018,0.9350612000000001,0.0,0.0,0.0
2026-05-10 20:53:23.840,128,-0.22844037,0.4372018,0.9350612,0.0,0.0,0.0
2026-05-10 20:53:23.850,129,-0.22844037000000003,0.4372018,0.9350612000000001,0.0,0.0,0.0
2026-05-10 20:53:23.860,130,-0.22844037000000003,0.4372018,0.9350612000000001,0.0,0.0,0.0
2026-05-10 20:53:23.870,131,-0.22844037000000003,0.4372018,0.9350612000000001,0.0,0.0,0.0
2026-05-10 20:53:23.880,132,-0.22358308000000002,0.43142708333333335,0.9322069666666667,0.0,0.0,0.0
2026-05-10 20:53:23.890,133,-0.2138685,0.41987764999999994,0.9264985,0.0,0.0,0.0
2026-05-10 20:53:23.900,134,-0.2138685,0.41987764999999994,0.9264985,0.0,0.0,0.0
2026-05-10 20:53:23.910,135,-0.2182416,0.35738534,0.8779817,0.0,0.0,0.0
2026-05-10 20:53:23.920,136,-0.2182416,0.35738534,0.8779817,0.0,0.0,0.0
2026-05-10 20:53:23.930,137,-0.2182416,0.35738534,0.8779817,0.0,0.0,0.0
2026-05-10 20:53:23.940,138,-0.2182416,0.35738534,0.8779817,0.0,0.0,0.0
2026-05-10 20:53:23.950,139,-0.2182416,0.35738534,0.8779817,0.0,0.0,0.0
2026-05-10 20:53:23.960,140,-0.2182416,0.35738534,0.8779817,0.0,0.0,0.0
2026-05-10 20:53:23.970,141,-0.2182416,0.35738534,0.8779817,0.0,0.0,0.0
2026-05-10 20:53:23.980,142,-0.2182416,0.35738534,0.8779817,0.0,0.0,0.0
2026-05-10 20:53:23.990,143,-0.2182416,0.35738534,0.8779817,0.0,0.0,0.0
2026-05-10 20:53:24.000,144,-0.2182416,0.35738534,0.8779817,0.0,0.0,0.0
2026-05-10 20:53:24.010,145,-0.2182416,0.35738534,0.8779817,0.0,0.0,0.0
2026-05-10 20:53:24.020,146,-0.2182416,0.35738534,0.8779817,0.0,0.0,0.0
2026-05-10 20:53:24.030,147,-0.23191132,0.3185474,0.86279815,0.0,0.0,0.0
2026-05-10 20:53:24.040,148,-0.2337958775,0.315030585,0.8584136025,0.0,0.0,0.0
2026-05-10 20:53:24.050,149,-0.23944955,0.30448014,0.84525996,0.0,0.0,0.0
2026-05-10 20:53:24.060,150,-0.23944955,0.30448014,0.84525996,0.0,0.0,0.0
2026-05-10 20:53:24.070,151,-0.23944955,0.30448014,0.84525996,0.0,0.0,0.0
2026-05-10 20:53:24.080,152,-0.23944955,0.30448014,0.84525996,0.0,0.0,0.0
2026-05-10 20:53:24.090,153,-0.23944955,0.30448014,0.84525996,0.0,0.0,0.0
2026-05-10 20:53:24.100,154,-0.23944955,0.30448014,0.84525996,0.0,0.0,0.0
2026-05-10 20:53:24.110,155,-0.23944955,0.30448014,0.84525996,0.0,0.0,0.0
2026-05-10 20:53:24.120,156,-0.23944955,0.30448014,0.84525996,0.0,0.0,0.0
2026-05-10 20:53:24.130,157,-0.23231397666666664,0.18745668000000001,0.7297349533333334,0.0,0.0,0.0
2026-05-10 20:53:24.140,158,-0.22874619,0.12894495,0.67197245,0.0,0.0,0.0
2026-05-10 20:53:24.150,159,-0.22874619,0.12894495,0.67197245,0.0,0.0,0.0
2026-05-10 20:53:24.160,160,-0.230328755,0.0937767575,0.6429204900000001,0.0,0.0,0.0
2026-05-10 20:53:24.170,161,-0.23191132,0.058608565,0.61386853,0.0,0.0,0.0
2026-05-10 20:53:24.180,162,-0.17675841,-0.29143733,0.063302755,0.0,0.0,0.0
2026-05-10 20:53:24.190,163,-0.17675841,-0.29143733,0.063302755,0.0,0.0,0.0
2026-05-10 20:53:24.200,164,-0.17675841,-0.29143733,0.063302755,0.0,0.0,0.0
2026-05-10 20:53:24.210,165,-0.17675841,-0.29143733,0.063302755,0.0,0.0,0.0
2026-05-10 20:53:24.220,166,-0.17675841,-0.29143733,0.063302755,0.0,0.0,0.0
2026-05-10 20:53:24.230,167,-0.17675841,-0.29143733,0.063302755,0.0,0.0,0.0
2026-05-10 20:53:24.240,168,-0.17675841,-0.29143733,0.063302755,0.0,0.0,0.0
2026-05-10 20:53:24.250,169,-0.17675841,-0.29143733,0.063302755,0.0,0.0,0.0
2026-05-10 20:53:24.260,170,-0.17675841,-0.29143733,0.063302755,0.0,0.0,0.0
2026-05-10 20:53:24.270,171,-0.17675841,-0.29143733,0.063302755,0.0,0.0,0.0
2026-05-10 20:53:24.280,172,-0.17675841,-0.29143733,0.063302755,0.0,0.0,0.0
2026-05-10 20:53:24.290,173,-0.17869521333333335,-0.3026860466666667,0.03567788166666667,0.0,0.0,0.0
2026-05-10 20:53:24.300,174,-0.18256882,-0.32518348,-0.019571865,0.0,0.0,0.0
2026-05-10 20:53:24.310,175,-0.18256882,-0.32518348,-0.019571865,0.0,0.0,0.0
2026-05-10 20:53:24.320,176,-0.18256882,-0.32518348,-0.019571865,0.0,0.0,0.0
2026-05-10 20:53:24.330,177,-0.18256882,-0.32518348,-0.019571865,0.0,0.0,0.0
2026-05-10 20:53:24.340,178,-0.18256882,-0.32518348,-0.019571865,0.0,0.0,0.0
2026-05-10 20:53:24.350,179,-0.28899083,-0.33853212,-0.11070337,0.0,0.0,0.0
2026-05-10 20:53:24.360,180,-0.28899083,-0.33853212,-0.11070337000000001,0.0,0.0,0.0
2026-05-10 20:53:24.370,181,-0.28899083,-0.33853212,-0.11070337000000001,0.0,0.0,0.0
2026-05-10 20:53:24.380,182,-0.28899083,-0.33853212,-0.11070337,0.0,0.0,0.0
2026-05-10 20:53:24.390,183,-0.28899083,-0.33853212,-0.11070337000000001,0.0,0.0,0.0
2026-05-10 20:53:24.400,184,-0.28899083,-0.33853212,-0.11070337,0.0,0.0,0.0
2026-05-10 20:53:24.410,185,-0.28899083,-0.33853212,-0.11070337000000001,0.0,0.0,0.0
2026-05-10 20:53:24.420,186,-0.28899083,-0.33853212,-0.11070337,0.0,0.0,0.0
2026-05-10 20:53:24.430,187,-0.28899083,-0.33853212,-0.11070337000000001,0.0,0.0,0.0
2026-05-10 20:53:24.440,188,-0.28899083,-0.33853212,-0.11070337000000001,0.0,0.0,0.0
2026-05-10 20:53:24.450,189,-0.28899083,-0.33853212,-0.11070337,0.0,0.0,0.0
2026-05-10 20:53:24.460,190,-0.28899083,-0.33853212,-0.11070337000000001,0.0,0.0,0.0
2026-05-10 20:53:24.470,191,-0.28899083,-0.33853212,-0.11070337,0.0,0.0,0.0
2026-05-10 20:53:24.480,192,-0.28899083,-0.33853212,-0.11070337000000001,0.0,0.0,0.0
2026-05-10 20:53:24.490,193,-0.28899083,-0.33853212,-0.11070337000000001,0.0,0.0,0.0
2026-05-10 20:53:24.500,194,-0.28899083,-0.33853212,-0.11070337,0.0,0.0,0.0
2026-05-10 20:53:24.510,195,-0.28899083,-0.33853212,-0.11070337000000001,0.0,0.0,0.0
2026-05-10 20:53:24.520,196,-0.28899083,-0.33853212,-0.11070337,0.0,0.0,0.0
2026-05-10 20:53:24.530,197,-0.28899083,-0.33853212,-0.11070337000000001,0.0,0.0,0.0
2026-05-10 20:53:24.540,198,-0.28899083,-0.33853212,-0.11070337,0.0,0.0,0.0
2026-05-10 20:53:24.550,199,-0.3479102966666667,-0.34362895333333326,-0.15528033,0.0,0.0,0.0
2026-05-10 20:53:24.560,200,-0.37737003,-0.34617737,-0.17756881,0.0,0.0,0.0
2026-05-10 20:53:24.570,201,-0.37737003,-0.34617737,-0.17756881,0.0,0.0,0.0
2026-05-10 20:53:24.580,202,-0.37737003,-0.34617737,-0.17756881,0.0,0.0,0.0
2026-05-10 20:53:24.590,203,-0.37737003,-0.34617737,-0.17756881,0.0,0.0,0.0
2026-05-10 20:53:24.600,204,-0.37737003,-0.34617737,-0.17756881,0.0,0.0,0.0
2026-05-10 20:53:24.610,205,-0.37737003,-0.34617737,-0.17756881,0.0,0.0,0.0
2026-05-10 20:53:24.620,206,-0.430428135,-0.352499985,-0.23343271999999998,0.0,0.0,0.0
2026-05-10 20:53:24.630,207,-0.48348624,-0.35882260000000005,-0.28929663,0.0,0.0,0.0
2026-05-10 20:53:24.640,208,-0.48348624,-0.35882260000000005,-0.28929663,0.0,0.0,0.0
2026-05-10 20:53:24.650,209,-0.48348624,-0.3588226,-0.28929663,0.0,0.0,0.0
2026-05-10 20:53:24.660,210,-0.46806321333333334,-0.39980122,-0.38906219,0.0,0.0,0.0
2026-05-10 20:53:24.670,211,-0.4603517,-0.42029053,-0.43894496999999993,0.0,0.0,0.0
2026-05-10 20:53:24.680,212,-0.4603517,-0.42029053,-0.43894497,0.0,0.0,0.0
2026-05-10 20:53:24.690,213,-0.4603517,-0.42029053,-0.43894496999999993,0.0,0.0,0.0
2026-05-10 20:53:24.700,214,-0.451024475,-0.4284709625,-0.45084481249999997,0.0,0.0,0.0
2026-05-10 20:53:24.710,215,-0.4230428,-0.45301226,-0.48654434,0.0,0.0,0.0
2026-05-10 20:53:24.720,216,-0.4230428,-0.45301226,-0.48654434,0.0,0.0,0.0
2026-05-10 20:53:24.730,217,-0.4230428,-0.45301226,-0.48654434,0.0,0.0,0.0
2026-05-10 20:53:24.740,218,-0.4230428,-0.45301226,-0.48654434,0.0,0.0,0.0
2026-05-10 20:53:24.750,219,-0.4230428,-0.45301226,-0.48654434,0.0,0.0,0.0
2026-05-10 20:53:24.760,220,-0.4230428,-0.45301226,-0.48654434,0.0,0.0,0.0
2026-05-10 20:53:24.770,221,-0.4230428,-0.45301226,-0.48654434,0.0,0.0,0.0
2026-05-10 20:53:24.780,222,-0.4230428,-0.45301226,-0.48654434,0.0,0.0,0.0
2026-05-10 20:53:24.790,223,-0.4230428,-0.45301226,-0.48654434,0.0,0.0,0.0
2026-05-10 20:53:24.800,224,-0.4230428,-0.45301226,-0.48654434,0.0,0.0,0.0
2026-05-10 20:53:24.810,225,-0.4230428,-0.45301226,-0.48654434,0.0,0.0,0.0
2026-05-10 20:53:24.820,226,-0.4230428,-0.45301226,-0.48654434,0.0,0.0,0.0
2026-05-10 20:53:24.830,227,-0.4230428,-0.45301226,-0.48654434,0.0,0.0,0.0
2026-05-10 20:53:24.840,228,-0.4230428,-0.45301226,-0.48654434,0.0,0.0,0.0
2026-05-10 20:53:24.850,229,-0.44988275333333333,-0.4481192733333333,-0.5182772800000001,0.0,0.0,0.0
2026-05-10 20:53:24.860,230,-0.46330272999999994,-0.44567278,-0.53414375,0.0,0.0,0.0
2026-05-10 20:53:24.870,231,-0.46330273,-0.44567278,-0.53414375,0.0,0.0,0.0
2026-05-10 20:53:24.880,232,-0.46330272999999994,-0.44567278,-0.53414375,0.0,0.0,0.0
2026-05-10 20:53:24.890,233,-0.46330272999999994,-0.44567278,-0.53414375,0.0,0.0,0.0
2026-05-10 20:53:24.900,234,-0.46330273,-0.44567278,-0.53414375,0.0,0.0,0.0
2026-05-10 20:53:24.910,235,-0.46330272999999994,-0.44567278,-0.53414375,0.0,0.0,0.0
2026-05-10 20:53:24.920,236,-0.46330272999999994,-0.44567278,-0.53414375,0.0,0.0,0.0
2026-05-10 20:53:24.930,237,-0.46330272999999994,-0.44567278,-0.53414375,0.0,0.0,0.0
2026-05-10 20:53:24.940,238,-0.46330273,-0.44567278,-0.53414375,0.0,0.0,0.0
2026-05-10 20:53:24.950,239,-0.46330272999999994,-0.44567278,-0.53414375,0.0,0.0,0.0
2026-05-10 20:53:24.960,240,-0.46330272999999994,-0.44567278,-0.53414375,0.0,0.0,0.0
2026-05-10 20:53:24.970,241,-0.46330273,-0.44567278,-0.53414375,0.0,0.0,0.0
2026-05-10 20:53:24.980,242,-0.46330272999999994,-0.44567278,-0.53414375,0.0,0.0,0.0
2026-05-10 20:53:24.990,243,-0.46330273,-0.44567278,-0.53414375,0.0,0.0,0.0
2026-05-10 20:53:25.000,244,-0.549694165,-0.43619267500000003,-0.556215625,0.0,0.0,0.0
2026-05-10 20:53:25.010,245,-0.6360856,-0.42671257,-0.5782875,0.0,0.0,0.0
2026-05-10 20:53:25.020,246,-0.6360856,-0.42671257,-0.5782875,0.0,0.0,0.0
2026-05-10 20:53:25.030,247,-0.6360856,-0.42671257,-0.5782875,0.0,0.0,0.0
2026-05-10 20:53:25.040,248,-0.6360856,-0.42671257,-0.5782875,0.0,0.0,0.0
2026-05-10 20:53:25.050,249,-0.6360856,-0.42671257,-0.5782875,0.0,0.0,0.0
2026-05-10 20:53:25.060,250,-0.6360856,-0.42671257,-0.5782875,0.0,0.0,0.0
2026-05-10 20:53:25.070,251,-0.6360856,-0.42671257,-0.5782875,0.0,0.0,0.0
2026-05-10 20:53:25.080,252,-0.6360856,-0.42671257,-0.5782875,0.0,0.0,0.0
2026-05-10 20:53:25.090,253,-0.6360856,-0.42671257,-0.5782875,0.0,0.0,0.0
2026-05-10 20:53:25.100,254,-0.6360856,-0.42671257,-0.5782875,0.0,0.0,0.0
2026-05-10 20:53:25.110,255,-0.6360856,-0.42671257,-0.5782875,0.0,0.0,0.0
2026-05-10 20:53:25.120,256,-0.6726809133333335,-0.42806831333333334,-0.5792711666666667,0.0,0.0,0.0
2026-05-10 20:53:25.130,257,-0.74587154,-0.4307798,-0.5812385,0.0,0.0,0.0
2026-05-10 20:53:25.140,258,-0.74587154,-0.4307798,-0.5812385,0.0,0.0,0.0
2026-05-10 20:53:25.150,259,-0.74587154,-0.4307798,-0.5812385,0.0,0.0,0.0
2026-05-10 20:53:25.160,260,-0.74587154,-0.4307798,-0.5812385,0.0,0.0,0.0
2026-05-10 20:53:25.170,261,-0.74587154,-0.4307798,-0.5812385,0.0,0.0,0.0
2026-05-10 20:53:25.180,262,-0.74587154,-0.4307798,-0.5812385,0.0,0.0,0.0
2026-05-10 20:53:25.190,263,-0.74587154,-0.4307798,-0.5812385,0.0,0.0,0.0
2026-05-10 20:53:25.200,264,-0.74587154,-0.4307798,-0.5812385,0.0,0.0,0.0
2026-05-10 20:53:25.210,265,-0.74587154,-0.4307798,-0.5812385,0.0,0.0,0.0
2026-05-10 20:53:25.220,266,-0.74587154,-0.4307798,-0.5812385,0.0,0.0,0.0
2026-05-10 20:53:25.230,267,-0.74587154,-0.4307798,-0.5812385,0.0,0.0,0.0
2026-05-10 20:53:25.240,268,-0.74587154,-0.4307798,-0.5812385,0.0,0.0,0.0
2026-05-10 20:53:25.250,269,-0.74587154,-0.4307798,-0.5812385,0.0,0.0,0.0
2026-05-10 20:53:25.260,270,-0.74587154,-0.4307798,-0.5812385,0.0,0.0,0.0
2026-05-10 20:53:25.270,271,-0.74587154,-0.4307798,-0.5812385,0.0,0.0,0.0
2026-05-10 20:53:25.280,272,-0.74587154,-0.4307798,-0.5812385,0.0,0.0,0.0
2026-05-10 20:53:25.290,273,-0.74587154,-0.4307798,-0.5812385,0.0,0.0,0.0
2026-05-10 20:53:25.300,274,-0.8953058,-0.3966361,-0.57584095,0.0,0.0,0.0
2026-05-10 20:53:25.310,275,-0.8953058,-0.3966361,-0.57584095,0.0,0.0,0.0
2026-05-10 20:53:25.320,276,-1.2745107,-0.29510704,-0.3129511,0.0,0.0,0.0
2026-05-10 20:53:25.330,277,-1.2745107,-0.29510704,-0.3129511,0.0,0.0,0.0
2026-05-10 20:53:25.340,278,-1.2745107,-0.29510704,-0.3129511,0.0,0.0,0.0
2026-05-10 20:53:25.350,279,-1.2745107,-0.29510704,-0.3129511,0.0,0.0,0.0
2026-05-10 20:53:25.360,280,-1.2745107,-0.29510704,-0.3129511,0.0,0.0,0.0
2026-05-10 20:53:25.370,281,-1.2745107,-0.29510704,-0.3129511,0.0,0.0,0.0
2026-05-10 20:53:25.380,282,-1.2745107,-0.29510704,-0.3129511,0.0,0.0,0.0
2026-05-10 20:53:25.390,283,-1.2745107,-0.29510704,-0.3129511,0.0,0.0,0.0
2026-05-10 20:53:25.400,284,-1.2745107,-0.29510704,-0.3129511,0.0,0.0,0.0
2026-05-10 20:53:25.410,285,-1.3653058333333334,-0.27737002666666666,-0.25246177333333336,0.0,0.0,0.0
2026-05-10 20:53:25.420,286,-1.4107034,-0.26850152,-0.22221711,0.0,0.0,0.0
2026-05-10 20:53:25.430,287,-1.4107034,-0.26850152,-0.22221711,0.0,0.0,0.0
2026-05-10 20:53:25.440,288,-1.4107034,-0.26850152,-0.22221711,0.0,0.0,0.0
2026-05-10 20:53:25.450,289,-1.4107034,-0.26850152,-0.22221711,0.0,0.0,0.0
2026-05-10 20:53:25.460,290,-1.4107034,-0.26850152,-0.22221711,0.0,0.0,0.0
2026-05-10 20:53:25.470,291,-1.4107034,-0.26850152,-0.22221711,0.0,0.0,0.0
2026-05-10 20:53:25.480,292,-1.4107034,-0.26850152,-0.22221711,0.0,0.0,0.0
2026-05-10 20:53:25.490,293,-1.42370035,-0.20975916749999998,-0.10580656499999999,0.0,0.0,0.0
2026-05-10 20:53:25.500,294,-1.4626912,-0.03353211,0.24342507,0.0,0.0,0.0
2026-05-10 20:53:25.510,295,-1.4626912,-0.03353211,0.24342507,0.0,0.0,0.0
2026-05-10 20:53:25.520,296,-1.444679,0.001258919333333335,0.3148521966666667,0.0,0.0,0.0
2026-05-10 20:53:25.530,297,-1.4356729,0.018654434,0.35056576,0.0,0.0,0.0
2026-05-10 20:53:25.540,298,-1.4246635,0.021100918,0.3656422,0.0,0.0,0.0
2026-05-10 20:53:25.550,299,-1.4246635,0.021100918,0.3656422,0.0,0.0,0.0
2026-05-10 20:53:25.560,300,-1.4246635,0.021100918,0.3656422,0.0,0.0,0.0
2026-05-10 20:53:25.570,301,-1.4246635,0.021100918,0.3656422,0.0,0.0,0.0
2026-05-10 20:53:25.580,302,-1.4246635,0.021100918,0.3656422,0.0,0.0,0.0
2026-05-10 20:53:25.590,303,-1.44113145,0.0387844025,0.38577982,0.0,0.0,0.0
2026-05-10 20:53:25.600,304,-1.4575994,0.056467887,0.40591744,0.0,0.0,0.0
2026-05-10 20:53:25.610,305,-1.4575994,0.056467887,0.40591744,0.0,0.0,0.0
2026-05-10 20:53:25.620,306,-1.4575994,0.056467887,0.40591744,0.0,0.0,0.0
2026-05-10 20:53:25.630,307,-1.6750306000000001,0.26218656,0.5524006,0.0,0.0,0.0
2026-05-10 20:53:25.640,308,-1.7062895333333332,0.28767075333333336,0.5781906333333334,0.0,0.0,0.0
2026-05-10 20:53:25.650,309,-1.7688074,0.33863914,0.6297707,0.0,0.0,0.0
2026-05-10 20:53:25.660,310,-1.7688074,0.33863914,0.6297707,0.0,0.0,0.0
2026-05-10 20:53:25.670,311,-1.7688074,0.33863914,0.6297707,0.0,0.0,0.0
2026-05-10 20:53:25.680,312,-1.7688074,0.33863914,0.6297707,0.0,0.0,0.0
2026-05-10 20:53:25.690,313,-1.7688074,0.33863914,0.6297707,0.0,0.0,0.0
2026-05-10 20:53:25.700,314,-1.7676835,0.37008409,0.6752829,0.0,0.0,0.0
2026-05-10 20:53:25.710,315,-1.7665596,0.40152904,0.7207951,0.0,0.0,0.0
2026-05-10 20:53:25.720,316,-1.7665596,0.40152904,0.7207951,0.0,0.0,0.0
2026-05-10 20:53:25.730,317,-1.7665596,0.40152904,0.7207951,0.0,0.0,0.0
2026-05-10 20:53:25.740,318,-1.7665596,0.40152904,0.7207951,0.0,0.0,0.0
2026-05-10 20:53:25.750,319,-1.7665596,0.40152904,0.7207951,0.0,0.0,0.0
2026-05-10 20:53:25.760,320,-1.7665596,0.40152904,0.7207951,0.0,0.0,0.0
2026-05-10 20:53:25.770,321,-1.7665596,0.40152904,0.7207951,0.0,0.0,0.0
2026-05-10 20:53:25.780,322,-1.7665596,0.40152904,0.7207951,0.0,0.0,0.0
2026-05-10 20:53:25.790,323,-1.7665596,0.40152904,0.7207951,0.0,0.0,0.0
2026-05-10 20:53:25.800,324,-1.7665596,0.40152904,0.7207951,0.0,0.0,0.0
2026-05-10 20:53:25.810,325,-1.7665596,0.40152904,0.7207951,0.0,0.0,0.0
2026-05-10 20:53:25.820,326,-1.7665596,0.40152904,0.7207951,0.0,0.0,0.0
2026-05-10 20:53:25.830,327,-1.7665596,0.40152904,0.7207951,0.0,0.0,0.0
2026-05-10 20:53:25.840,328,-1.6891897,0.48429665,0.9938837,0.0,0.0,0.0
2026-05-10 20:53:25.850,329,-1.6891897,0.48429664999999994,0.9938837,0.0,0.0,0.0
2026-05-10 20:53:25.860,330,-1.6891897,0.48429664999999994,0.9938837,0.0,0.0,0.0
2026-05-10 20:53:25.870,331,-1.6891897,0.48429665,0.9938837,0.0,0.0,0.0
2026-05-10 20:53:25.880,332,-1.6891897,0.48429664999999994,0.9938837,0.0,0.0,0.0
2026-05-10 20:53:25.890,333,-1.759831825,0.5648814875,1.0773701,0.0,0.0,0.0
2026-05-10 20:53:25.900,334,-1.7833792,0.5917431,1.1051989,0.0,0.0,0.0
2026-05-10 20:53:25.910,335,-1.7833792,0.5917431,1.1051989,0.0,0.0,0.0
2026-05-10 20:53:25.920,336,-1.7833792,0.5917431,1.1051989,0.0,0.0,0.0
2026-05-10 20:53:25.930,337,-1.7833792,0.5917431,1.1051989,0.0,0.0,0.0
2026-05-10 20:53:25.940,338,-1.7833792,0.5917431,1.1051989,0.0,0.0,0.0
2026-05-10 20:53:25.950,339,-1.7833792,0.5917431,1.1051989,0.0,0.0,0.0
2026-05-10 20:53:25.960,340,-1.7833792,0.5917431,1.1051989,0.0,0.0,0.0
2026-05-10 20:53:25.970,341,-1.7833792,0.5917431,1.1051989,0.0,0.0,0.0
2026-05-10 20:53:25.980,342,-1.8180377666666665,0.6102956,1.1105658333333333,0.0,0.0,0.0
2026-05-10 20:53:25.990,343,-1.8873549,0.6474006,1.1212997,0.0,0.0,0.0
2026-05-10 20:53:26.000,344,-1.8873549,0.6474006,1.1212997,0.0,0.0,0.0
2026-05-10 20:53:26.010,345,-1.898822725,0.6646521249999999,1.1236200250000001,0.0,0.0,0.0
2026-05-10 20:53:26.020,346,-1.9332262,0.7164067,1.130581,0.0,0.0,0.0
2026-05-10 20:53:26.030,347,-1.9332262,0.7164067,1.130581,0.0,0.0,0.0
2026-05-10 20:53:26.040,348,-1.9332262,0.7164067,1.130581,0.0,0.0,0.0
2026-05-10 20:53:26.050,349,-1.9332262,0.7164067,1.130581,0.0,0.0,0.0
2026-05-10 20:53:26.060,350,-1.9332262,0.7164067,1.130581,0.0,0.0,0.0
2026-05-10 20:53:26.070,351,-1.9332262,0.7164067,1.130581,0.0,0.0,0.0
2026-05-10 20:53:26.080,352,-1.9433588666666666,0.7577318733333334,1.1318756666666667,0.0,0.0,0.0
2026-05-10 20:53:26.090,353,-1.9484252,0.77839446,1.132523,0.0,0.0,0.0
2026-05-10 20:53:26.100,354,-1.9692202666666667,0.8213404866666667,1.13184,0.0,0.0,0.0
2026-05-10 20:53:26.110,355,-1.9796178,0.8428135,1.1314985,0.0,0.0,0.0
2026-05-10 20:53:26.120,356,-1.9796178,0.8428135,1.1314985,0.0,0.0,0.0
2026-05-10 20:53:26.130,357,-1.9796178,0.8428135,1.1314985,0.0,0.0,0.0
2026-05-10 20:53:26.140,358,-1.9796178,0.8428135,1.1314985,0.0,0.0,0.0
2026-05-10 20:53:26.150,359,-1.9796178,0.8428135,1.1314985,0.0,0.0,0.0
2026-05-10 20:53:26.160,360,-1.9796178,0.8428135,1.1314985,0.0,0.0,0.0
2026-05-10 20:53:26.170,361,-1.9884863,1.0003059,1.2069266,0.0,0.0,0.0
2026-05-10 20:53:26.180,362,-1.9884863,1.0003059,1.2069266,0.0,0.0,0.0
2026-05-10 20:53:26.190,363,-1.9884863,1.0003059,1.2069266,0.0,0.0,0.0
2026-05-10 20:53:26.200,364,-1.9884863,1.0003059,1.2069266,0.0,0.0,0.0
2026-05-10 20:53:26.210,365,-1.9884863,1.0003059,1.2069266,0.0,0.0,0.0
2026-05-10 20:53:26.220,366,-1.9884863,1.0003059,1.2069266,0.0,0.0,0.0
2026-05-10 20:53:26.230,367,-1.9884863,1.0003059,1.2069266,0.0,0.0,0.0
2026-05-10 20:53:26.240,368,-1.9884863,1.0003059,1.2069266,0.0,0.0,0.0
2026-05-10 20:53:26.250,369,-1.9884863,1.0003059,1.2069266,0.0,0.0,0.0
2026-05-10 20:53:26.260,370,-1.95733945,1.0188609,1.2512232,0.0,0.0,0.0
2026-05-10 20:53:26.270,371,-1.9261926,1.0374159,1.2955198,0.0,0.0,0.0
2026-05-10 20:53:26.280,372,-1.9261926,1.0374159,1.2955198,0.0,0.0,0.0
2026-05-10 20:53:26.290,373,-1.9261926,1.0374159,1.2955198,0.0,0.0,0.0
2026-05-10 20:53:26.300,374,-1.9261926,1.0374159,1.2955198,0.0,0.0,0.0
2026-05-10 20:53:26.310,375,-1.9261926,1.0374159,1.2955198,0.0,0.0,0.0
2026-05-10 20:53:26.320,376,-1.9261926,1.0374159,1.2955198,0.0,0.0,0.0
2026-05-10 20:53:26.330,377,-1.9261926,1.0374159,1.2955198,0.0,0.0,0.0
2026-05-10 20:53:26.340,378,-1.9261926,1.0374159,1.2955198,0.0,0.0,0.0
2026-05-10 20:53:26.350,379,-1.9261926,1.0374159,1.2955198,0.0,0.0,0.0
2026-05-10 20:53:26.360,380,-1.9643526333333334,1.0653771666666667,1.3644597333333335,0.0,0.0,0.0
2026-05-10 20:53:26.370,381,-2.0411773,1.1055045,1.4332263,0.0,0.0,0.0
2026-05-10 20:53:26.380,382,-2.0411773,1.1055045,1.4332263,0.0,0.0,0.0
2026-05-10 20:53:26.390,383,-2.2048929,1.1486238,1.4778746,0.0,0.0,0.0
2026-05-10 20:53:26.400,384,-2.2048929,1.1486238,1.4778746,0.0,0.0,0.0
2026-05-10 20:53:26.410,385,-2.2048929,1.1486238,1.4778746,0.0,0.0,0.0
2026-05-10 20:53:26.420,386,-2.2048929,1.1486238,1.4778746,0.0,0.0,0.0
2026-05-10 20:53:26.430,387,-2.2048929,1.1486238,1.4778746,0.0,0.0,0.0
2026-05-10 20:53:26.440,388,-2.2048929,1.1486238,1.4778746,0.0,0.0,0.0
2026-05-10 20:53:26.450,389,-2.2048929,1.1486238,1.4778746,0.0,0.0,0.0
2026-05-10 20:53:26.460,390,-2.2048929,1.1486238,1.4778746,0.0,0.0,0.0
2026-05-10 20:53:26.470,391,-2.2048929,1.1486238,1.4778746,0.0,0.0,0.0
2026-05-10 20:53:26.480,392,-2.2048929,1.1486238,1.4778746,0.0,0.0,0.0
2026-05-10 20:53:26.490,393,-2.2048929,1.1486238,1.4778746,0.0,0.0,0.0
2026-05-10 20:53:26.500,394,-2.2048929,1.1486238,1.4778746,0.0,0.0,0.0
2026-05-10 20:53:26.510,395,-2.2048929,1.1486238,1.4778746,0.0,0.0,0.0
2026-05-10 20:53:26.520,396,-2.2048929,1.1486238,1.4778746,0.0,0.0,0.0
2026-05-10 20:53:26.530,397,-2.2048929,1.1486238,1.4778746,0.0,0.0,0.0
2026-05-10 20:53:26.540,398,-2.2738532,1.15560395,1.4795565499999999,0.0,0.0,0.0
2026-05-10 20:53:26.550,399,-2.3428135,1.1625841,1.4812385,0.0,0.0,0.0
2026-05-10 20:53:26.560,400,-2.3428135,1.1625841,1.4812385,0.0,0.0,0.0
2026-05-10 20:53:26.570,401,-2.3428135,1.1625841,1.4812385,0.0,0.0,0.0
2026-05-10 20:53:26.580,402,-2.3428135,1.1625841,1.4812385,0.0,0.0,0.0
2026-05-10 20:53:26.590,403,-2.4092049666666666,1.1832467,1.4791386333333332,0.0,0.0,0.0
2026-05-10 20:53:26.600,404,-2.4424007,1.193578,1.4780887,0.0,0.0,0.0
2026-05-10 20:53:26.610,405,-2.4424007,1.193578,1.4780887,0.0,0.0,0.0
2026-05-10 20:53:26.620,406,-2.4424007,1.193578,1.4780887,0.0,0.0,0.0
2026-05-10 20:53:26.630,407,-2.4424007,1.193578,1.4780887,0.0,0.0,0.0
2026-05-10 20:53:26.640,408,-2.4424007,1.193578,1.4780887,0.0,0.0,0.0
2026-05-10 20:53:26.650,409,-2.4424007,1.193578,1.4780887,0.0,0.0,0.0
2026-05-10 20:53:26.660,410,-2.4424007,1.193578,1.4780887,0.0,0.0,0.0
2026-05-10 20:53:26.670,411,-2.4424007,1.193578,1.4780887,0.0,0.0,0.0
2026-05-10 20:53:26.680,412,-2.4424007,1.193578,1.4780887,0.0,0.0,0.0
2026-05-10 20:53:26.690,413,-2.4424007,1.193578,1.4780887,0.0,0.0,0.0
2026-05-10 20:53:26.700,414,-2.4424007,1.193578,1.4780887,0.0,0.0,0.0
2026-05-10 20:53:26.710,415,-2.4424007,1.193578,1.4780887,0.0,0.0,0.0
2026-05-10 20:53:26.720,416,-2.4424007,1.193578,1.4780887,0.0,0.0,0.0
2026-05-10 20:53:26.730,417,-2.4424007,1.193578,1.4780887,0.0,0.0,0.0
2026-05-10 20:53:26.740,418,-2.4424007,1.193578,1.4780887,0.0,0.0,0.0
2026-05-10 20:53:26.750,419,-2.4424007,1.193578,1.4780887,0.0,0.0,0.0
2026-05-10 20:53:26.760,420,-2.442334433333333,1.1911977333333335,1.4623904333333335,0.0,0.0,0.0
2026-05-10 20:53:26.770,421,-2.4422019,1.1864372,1.4309939,0.0,0.0,0.0
2026-05-10 20:53:26.780,422,-2.4422019,1.1864372,1.4309939,0.0,0.0,0.0
2026-05-10 20:53:26.790,423,-2.4422019,1.1864372,1.4309939,0.0,0.0,0.0
2026-05-10 20:53:26.800,424,-2.4242609,1.1837258000000002,1.4124414333333333,0.0,0.0,0.0
2026-05-10 20:53:26.810,425,-2.4152904,1.1823701,1.4031652,0.0,0.0,0.0
2026-05-10 20:53:26.820,426,-2.4152904,1.1823701,1.4031652,0.0,0.0,0.0
2026-05-10 20:53:26.830,427,-2.4152904,1.1823701,1.4031652,0.0,0.0,0.0
2026-05-10 20:53:26.840,428,-2.4152904,1.1823701,1.4031652,0.0,0.0,0.0
2026-05-10 20:53:26.850,429,-2.4152904,1.1823701,1.4031652,0.0,0.0,0.0
2026-05-10 20:53:26.860,430,-2.4152904,1.1823701,1.4031652,0.0,0.0,0.0
2026-05-10 20:53:26.870,431,-2.4152904,1.1823701,1.4031652,0.0,0.0,0.0
2026-05-10 20:53:26.880,432,-2.4563404666666666,1.1712895666666667,1.2186595999999998,0.0,0.0,0.0
2026-05-10 20:53:26.890,433,-2.4768655,1.1657493,1.1264068,0.0,0.0,0.0
2026-05-10 20:53:26.900,434,-2.4768655,1.1657493,1.1264068,0.0,0.0,0.0
2026-05-10 20:53:26.910,435,-2.4768655,1.1657493,1.1264068,0.0,0.0,0.0
2026-05-10 20:53:26.920,436,-2.4768655,1.1657493,1.1264068,0.0,0.0,0.0
2026-05-10 20:53:26.930,437,-2.5373445,1.1592253000000001,1.0121662,0.0,0.0,0.0
2026-05-10 20:53:26.940,438,-2.567584,1.1559633,0.9550459,0.0,0.0,0.0
2026-05-10 20:53:26.950,439,-2.567584,1.1559633,0.9550459,0.0,0.0,0.0
2026-05-10 20:53:26.960,440,-2.617045,1.0452638250000001,0.8040481975,0.0,0.0,0.0
2026-05-10 20:53:26.970,441,-2.633532,1.008364,0.75371563,0.0,0.0,0.0
2026-05-10 20:53:26.980,442,-2.633532,1.008364,0.75371563,0.0,0.0,0.0
2026-05-10 20:53:26.990,443,-2.633532,1.008364,0.75371563,0.0,0.0,0.0
2026-05-10 20:53:27.000,444,-2.633532,1.008364,0.75371563,0.0,0.0,0.0
2026-05-10 20:53:27.010,445,-2.633532,1.008364,0.75371563,0.0,0.0,0.0
2026-05-10 20:53:27.020,446,-2.633532,1.008364,0.75371563,0.0,0.0,0.0
2026-05-10 20:53:27.030,447,-2.633532,1.008364,0.75371563,0.0,0.0,0.0
2026-05-10 20:53:27.040,448,-2.5680888,0.91243124,0.6753364,0.0,0.0,0.0
2026-05-10 20:53:27.050,449,-2.5680888,0.91243124,0.6753364,0.0,0.0,0.0
2026-05-10 20:53:27.060,450,-2.4892967,0.8326147,0.66655964,0.0,0.0,0.0
2026-05-10 20:53:27.070,451,-2.4892967,0.8326147,0.66655964,0.0,0.0,0.0
2026-05-10 20:53:27.080,452,-2.4892967,0.8326147,0.66655964,0.0,0.0,0.0
2026-05-10 20:53:27.090,453,-2.4892967,0.8326147,0.66655964,0.0,0.0,0.0
2026-05-10 20:53:27.100,454,-2.4892967,0.8326147,0.66655964,0.0,0.0,0.0
2026-05-10 20:53:27.110,455,-2.4892967,0.8326147,0.66655964,0.0,0.0,0.0
2026-05-10 20:53:27.120,456,-2.4892967,0.8326147,0.66655964,0.0,0.0,0.0
2026-05-10 20:53:27.130,457,-2.4892967,0.8326147,0.66655964,0.0,0.0,0.0
2026-05-10 20:53:27.140,458,-2.4892967,0.8326147,0.66655964,0.0,0.0,0.0
2026-05-10 20:53:27.150,459,-2.4671458333333334,0.6812793,0.76619268,0.0,0.0,0.0
2026-05-10 20:53:27.160,460,-2.4560704,0.6056116,0.8160092,0.0,0.0,0.0
2026-05-10 20:53:27.170,461,-2.4560704,0.6056116,0.8160092,0.0,0.0,0.0
2026-05-10 20:53:27.180,462,-2.4560704,0.6056116,0.8160092,0.0,0.0,0.0
2026-05-10 20:53:27.190,463,-2.4560704,0.6056116,0.8160092,0.0,0.0,0.0
2026-05-10 20:53:27.200,464,-2.4560704,0.6056116,0.8160092,0.0,0.0,0.0
2026-05-10 20:53:27.210,465,-2.45897185,0.48863913999999997,0.9169954250000001,0.0,0.0,0.0
2026-05-10 20:53:27.220,466,-2.459939,0.44964831999999993,0.9506575,0.0,0.0,0.0
2026-05-10 20:53:27.230,467,-2.459939,0.44964832,0.9506575,0.0,0.0,0.0
2026-05-10 20:53:27.240,468,-2.459939,0.44964832,0.9506575,0.0,0.0,0.0
2026-05-10 20:53:27.250,469,-2.459939,0.44964832,0.9506575,0.0,0.0,0.0
2026-05-10 20:53:27.260,470,-2.459939,0.44964832,0.9506575,0.0,0.0,0.0
2026-05-10 20:53:27.270,471,-2.459939,0.44964832,0.9506575,0.0,0.0,0.0
2026-05-10 20:53:27.280,472,-2.459939,0.44964832,0.9506575,0.0,0.0,0.0
2026-05-10 20:53:27.290,473,-2.459939,0.44964831999999993,0.9506575,0.0,0.0,0.0
2026-05-10 20:53:27.300,474,-2.459939,0.44964831999999993,0.9506575,0.0,0.0,0.0
2026-05-10 20:53:27.310,475,-2.459939,0.44964832,0.9506575,0.0,0.0,0.0
2026-05-10 20:53:27.320,476,-2.459939,0.44964831999999993,0.9506575,0.0,0.0,0.0
2026-05-10 20:53:27.330,477,-2.459939,0.44964831999999993,0.9506575,0.0,0.0,0.0
2026-05-10 20:53:27.340,478,-2.459939,0.44964831999999993,0.9506575,0.0,0.0,0.0
2026-05-10 20:53:27.350,479,-2.459939,0.44964831999999993,0.9506575,0.0,0.0,0.0
2026-05-10 20:53:27.360,480,-2.574205,0.39591745,1.0824618,0.0,0.0,0.0
2026-05-10 20:53:27.370,481,-2.574205,0.39591745,1.0824618,0.0,0.0,0.0
2026-05-10 20:53:27.380,482,-2.574205,0.39591745,1.0824618,0.0,0.0,0.0
2026-05-10 20:53:27.390,483,-2.574205,0.39591745,1.0824618,0.0,0.0,0.0
2026-05-10 20:53:27.400,484,-2.574205,0.39591745,1.0824618,0.0,0.0,0.0
2026-05-10 20:53:27.410,485,-2.6109022,0.37576963333333335,1.1144394,0.0,0.0,0.0
2026-05-10 20:53:27.420,486,-2.6842966,0.335474,1.1783946,0.0,0.0,0.0
2026-05-10 20:53:27.430,487,-2.6842966,0.335474,1.1783946,0.0,0.0,0.0
2026-05-10 20:53:27.440,488,-2.6842966,0.335474,1.1783946,0.0,0.0,0.0
2026-05-10 20:53:27.450,489,-2.6842966,0.335474,1.1783946,0.0,0.0,0.0
2026-05-10 20:53:27.460,490,-2.6842966,0.335474,1.1783946,0.0,0.0,0.0
2026-05-10 20:53:27.470,491,-2.6842966,0.335474,1.1783946,0.0,0.0,0.0
2026-05-10 20:53:27.480,492,-2.6842966,0.335474,1.1783946,0.0,0.0,0.0
2026-05-10 20:53:27.490,493,-2.6842966,0.335474,1.1783946,0.0,0.0,0.0
2026-05-10 20:53:27.500,494,-2.6842966,0.335474,1.1783946,0.0,0.0,0.0
2026-05-10 20:53:27.510,495,-2.6842966,0.335474,1.1783946,0.0,0.0,0.0
2026-05-10 20:53:27.520,496,-2.6842966,0.335474,1.1783946,0.0,0.0,0.0
2026-05-10 20:53:27.530,497,-2.6842966,0.335474,1.1783946,0.0,0.0,0.0
2026-05-10 20:53:27.540,498,-2.6842966,0.335474,1.1783946,0.0,0.0,0.0
2026-05-10 20:53:27.550,499,-2.6818502,0.1377217,1.2940826,0.0,0.0,0.0
2026-05-10 20:53:27.560,500,-2.6818502,0.1377217,1.2940826,0.0,0.0,0.0
2026-05-10 20:53:27.570,501,-2.6818502,0.1377217,1.2940826,0.0,0.0,0.0
2026-05-10 20:53:27.580,502,-2.6818502,0.1377217,1.2940826,0.0,0.0,0.0
2026-05-10 20:53:27.590,503,-2.6818502,0.1377217,1.2940826,0.0,0.0,0.0
2026-05-10 20:53:27.600,504,-2.6818502,0.1377217,1.2940826,0.0,0.0,0.0
2026-05-10 20:53:27.610,505,-2.6818502,0.1377217,1.2940826,0.0,0.0,0.0
2026-05-10 20:53:27.620,506,-2.6818502,0.1377217,1.2940826,0.0,0.0,0.0
2026-05-10 20:53:27.630,507,-2.6818502,0.1377217,1.2940826,0.0,0.0,0.0
2026-05-10 20:53:27.640,508,-2.6503517,0.06748725,1.2985678333333335,0.0,0.0,0.0
2026-05-10 20:53:27.650,509,-2.5873547,-0.07298165,1.3075383,0.0,0.0,0.0
2026-05-10 20:53:27.660,510,-2.5873547,-0.07298165,1.3075383,0.0,0.0,0.0
2026-05-10 20:53:27.670,511,-2.5873547,-0.07298165,1.3075383,0.0,0.0,0.0
2026-05-10 20:53:27.680,512,-2.5873547,-0.07298165,1.3075383,0.0,0.0,0.0
2026-05-10 20:53:27.690,513,-2.5873547,-0.07298165,1.3075383,0.0,0.0,0.0
2026-05-10 20:53:27.700,514,-2.467997,-0.21509175,1.1923548,0.0,0.0,0.0
2026-05-10 20:53:27.710,515,-2.467997,-0.21509175,1.1923548,0.0,0.0,0.0
2026-05-10 20:53:27.720,516,-2.467997,-0.21509175,1.1923548,0.0,0.0,0.0
2026-05-10 20:53:27.730,517,-2.467997,-0.21509175,1.1923548,0.0,0.0,0.0
2026-05-10 20:53:27.740,518,-2.467997,-0.21509175,1.1923548,0.0,0.0,0.0
2026-05-10 20:53:27.750,519,-2.467997,-0.21509175,1.1923548,0.0,0.0,0.0
2026-05-10 20:53:27.760,520,-2.467997,-0.21509175,1.1923548,0.0,0.0,0.0
2026-05-10 20:53:27.770,521,-2.3889550666666666,-0.31662080333333337,1.0585422933333335,0.0,0.0,0.0
2026-05-10 20:53:27.780,522,-2.3494341,-0.36738533,0.99163604,0.0,0.0,0.0
2026-05-10 20:53:27.790,523,-2.3494341,-0.36738533,0.99163604,0.0,0.0,0.0
2026-05-10 20:53:27.800,524,-2.3494341,-0.36738533,0.99163604,0.0,0.0,0.0
2026-05-10 20:53:27.810,525,-2.3494341,-0.36738533,0.99163604,0.0,0.0,0.0
2026-05-10 20:53:27.820,526,-2.3494341,-0.36738533,0.99163604,0.0,0.0,0.0
2026-05-10 20:53:27.830,527,-2.3494341,-0.36738533,0.99163604,0.0,0.0,0.0
2026-05-10 20:53:27.840,528,-2.3494341,-0.36738533,0.99163604,0.0,0.0,0.0
2026-05-10 20:53:27.850,529,-2.3494341,-0.36738533,0.99163604,0.0,0.0,0.0
2026-05-10 20:53:27.860,530,-2.3494341,-0.36738533,0.99163604,0.0,0.0,0.0
2026-05-10 20:53:27.870,531,-2.3494341,-0.36738533,0.99163604,0.0,0.0,0.0
2026-05-10 20:53:27.880,532,-2.3494341,-0.36738533,0.99163604,0.0,0.0,0.0
2026-05-10 20:53:27.890,533,-2.3007797,-0.4742762833333334,0.8779459466666667,0.0,0.0,0.0
2026-05-10 20:53:27.900,534,-2.2764525,-0.52772176,0.8211008999999999,0.0,0.0,0.0
2026-05-10 20:53:27.910,535,-2.2764525,-0.52772176,0.8211009,0.0,0.0,0.0
2026-05-10 20:53:27.920,536,-2.2764525,-0.52772176,0.8211008999999999,0.0,0.0,0.0
2026-05-10 20:53:27.930,537,-2.2764525,-0.52772176,0.8211008999999999,0.0,0.0,0.0
2026-05-10 20:53:27.940,538,-2.2764525,-0.52772176,0.8211009,0.0,0.0,0.0
2026-05-10 20:53:27.950,539,-2.016478033333333,-0.5924872666666666,0.6802548599999999,0.0,0.0,0.0
2026-05-10 20:53:27.960,540,-1.7534097,-0.6327217,0.54801226,0.0,0.0,0.0
2026-05-10 20:53:27.970,541,-1.7534097,-0.6327217,0.54801226,0.0,0.0,0.0
2026-05-10 20:53:27.980,542,-1.7534097,-0.6327217,0.54801226,0.0,0.0,0.0
2026-05-10 20:53:27.990,543,-1.7534097,-0.6327217,0.54801226,0.0,0.0,0.0
2026-05-10 20:53:28.000,544,-1.7534097,-0.6327217,0.54801226,0.0,0.0,0.0
2026-05-10 20:53:28.010,545,-1.7534097,-0.6327217,0.54801226,0.0,0.0,0.0
2026-05-10 20:53:28.020,546,-1.7534097,-0.6327217,0.54801226,0.0,0.0,0.0
2026-05-10 20:53:28.030,547,-1.7534097,-0.6327217,0.54801226,0.0,0.0,0.0
2026-05-10 20:53:28.040,548,-1.6209022,-0.63383794,0.4169266200000001,0.0,0.0,0.0
2026-05-10 20:53:28.050,549,-1.6209022,-0.63383794,0.41692662,0.0,0.0,0.0
2026-05-10 20:53:28.060,550,-1.5325535333333333,-0.6623190466666667,0.3694240733333333,0.0,0.0,0.0
2026-05-10 20:53:28.070,551,-1.4883792,-0.6765596,0.3456728,0.0,0.0,0.0
2026-05-10 20:53:28.080,552,-1.2730886666666665,-0.6894648666666666,0.2359888,0.0,0.0,0.0
2026-05-10 20:53:28.090,553,-1.1654434,-0.6959174999999999,0.18114679999999997,0.0,0.0,0.0
2026-05-10 20:53:28.100,554,-1.1654434,-0.6959175,0.1811468,0.0,0.0,0.0
2026-05-10 20:53:28.110,555,-1.1654434,-0.6959174999999999,0.18114679999999997,0.0,0.0,0.0
2026-05-10 20:53:28.120,556,-1.1654434,-0.6959175,0.1811468,0.0,0.0,0.0
2026-05-10 20:53:28.130,557,-1.1654434,-0.6959174999999999,0.18114679999999997,0.0,0.0,0.0
2026-05-10 20:53:28.140,558,-1.1654434,-0.6959174999999999,0.18114679999999997,0.0,0.0,0.0
2026-05-10 20:53:28.150,559,-1.1654434,-0.6959175,0.1811468,0.0,0.0,0.0
2026-05-10 20:53:28.160,560,-1.1328899000000001,-0.6708410333333333,0.10846585866666665,0.0,0.0,0.0
2026-05-10 20:53:28.170,561,-1.0677829,-0.6206881,-0.036896024,0.0,0.0,0.0
2026-05-10 20:53:28.180,562,-1.0677829,-0.6206881,-0.036896024,0.0,0.0,0.0
2026-05-10 20:53:28.190,563,-1.0677829,-0.6206881,-0.036896024,0.0,0.0,0.0
2026-05-10 20:53:28.200,564,-1.0677829,-0.6206881,-0.036896024,0.0,0.0,0.0
2026-05-10 20:53:28.210,565,-1.0677829,-0.6206881,-0.036896024,0.0,0.0,0.0
2026-05-10 20:53:28.220,566,-1.0677829,-0.6206881,-0.036896024,0.0,0.0,0.0
2026-05-10 20:53:28.230,567,-1.0677829,-0.6206881,-0.036896024,0.0,0.0,0.0
2026-05-10 20:53:28.240,568,-1.1269113,-0.5697248,-0.114785925,0.0,0.0,0.0
2026-05-10 20:53:28.250,569,-1.1269113,-0.5697248,-0.114785925,0.0,0.0,0.0
2026-05-10 20:53:28.260,570,-1.1269113,-0.5697248,-0.114785925,0.0,0.0,0.0
2026-05-10 20:53:28.270,571,-1.1269113,-0.5697248,-0.114785925,0.0,0.0,0.0
2026-05-10 20:53:28.280,572,-1.1269113,-0.5697248,-0.114785925,0.0,0.0,0.0
2026-05-10 20:53:28.290,573,-1.1269113,-0.5697248,-0.114785925,0.0,0.0,0.0
2026-05-10 20:53:28.300,574,-1.1269113,-0.5697248,-0.114785925,0.0,0.0,0.0
2026-05-10 20:53:28.310,575,-1.1269113,-0.5697248,-0.114785925,0.0,0.0,0.0
2026-05-10 20:53:28.320,576,-1.1269113,-0.5697248,-0.114785925,0.0,0.0,0.0
2026-05-10 20:53:28.330,577,-1.1269113,-0.5697248,-0.114785925,0.0,0.0,0.0
2026-05-10 20:53:28.340,578,-1.080431925,-0.5405963,-0.11462537625,0.0,0.0,0.0
2026-05-10 20:53:28.350,579,-1.0649388,-0.5308868,-0.11457186000000001,0.0,0.0,0.0
2026-05-10 20:53:28.360,580,-1.0649388,-0.5308868,-0.11457186000000001,0.0,0.0,0.0
2026-05-10 20:53:28.370,581,-1.0649388,-0.5308868,-0.11457186,0.0,0.0,0.0
2026-05-10 20:53:28.380,582,-1.0649388,-0.5308868,-0.11457186000000001,0.0,0.0,0.0
2026-05-10 20:53:28.390,583,-1.0649388,-0.5308868,-0.11457186,0.0,0.0,0.0
2026-05-10 20:53:28.400,584,-1.0416615333333332,-0.5202191266666666,-0.10991844666666667,0.0,0.0,0.0
2026-05-10 20:53:28.410,585,-0.995107,-0.49888378000000005,-0.10061162,0.0,0.0,0.0
2026-05-10 20:53:28.420,586,-0.995107,-0.49888378,-0.10061162,0.0,0.0,0.0
2026-05-10 20:53:28.430,587,-0.995107,-0.49888378000000005,-0.10061162,0.0,0.0,0.0
2026-05-10 20:53:28.440,588,-0.995107,-0.49888378,-0.10061162,0.0,0.0,0.0
2026-05-10 20:53:28.450,589,-0.995107,-0.49888378000000005,-0.10061162,0.0,0.0,0.0
2026-05-10 20:53:28.460,590,-0.9008154666666667,-0.5010907033333334,-0.09290010333333333,0.0,0.0,0.0
2026-05-10 20:53:28.470,591,-0.7122324,-0.50550455,-0.07747707,0.0,0.0,0.0
2026-05-10 20:53:28.480,592,-0.7122324,-0.50550455,-0.07747707,0.0,0.0,0.0
2026-05-10 20:53:28.490,593,-0.30414882666666665,-0.50272169,-0.094398574,0.0,0.0,0.0
2026-05-10 20:53:28.500,594,-0.10010704,-0.50133026,-0.102859326,0.0,0.0,0.0
2026-05-10 20:53:28.510,595,-0.10010704,-0.50133026,-0.10285932599999999,0.0,0.0,0.0
2026-05-10 20:53:28.520,596,-0.10010704,-0.50133026,-0.102859326,0.0,0.0,0.0
2026-05-10 20:53:28.530,597,-0.10010704,-0.50133026,-0.10285932599999999,0.0,0.0,0.0
2026-05-10 20:53:28.540,598,-0.10010704,-0.50133026,-0.10285932599999999,0.0,0.0,0.0
2026-05-10 20:53:28.550,599,-0.10010704,-0.50133026,-0.102859326,0.0,0.0,0.0
2026-05-10 20:53:28.560,600,-0.10010704,-0.50133026,-0.10285932599999999,0.0,0.0,0.0
2026-05-10 20:53:28.570,601,-0.10010704,-0.50133026,-0.10285932599999999,0.0,0.0,0.0
2026-05-10 20:53:28.580,602,-0.10010704,-0.50133026,-0.10285932599999999,0.0,0.0,0.0
2026-05-10 20:53:28.590,603,-0.10010704,-0.50133026,-0.10285932599999999,0.0,0.0,0.0
2026-05-10 20:53:28.600,604,-0.10010704,-0.50133026,-0.10285932599999999,0.0,0.0,0.0
2026-05-10 20:53:28.610,605,0.09969419,-0.4867431,-0.18389909000000002,0.0,0.0,0.0
2026-05-10 20:53:28.620,606,0.09969419,-0.4867431,-0.18389909,0.0,0.0,0.0
2026-05-10 20:53:28.630,607,0.09969419,-0.4867431,-0.18389909000000002,0.0,0.0,0.0
2026-05-10 20:53:28.640,608,0.09969419,-0.4867431,-0.18389909000000002,0.0,0.0,0.0
2026-05-10 20:53:28.650,609,0.09969419,-0.4867431,-0.18389909000000002,0.0,0.0,0.0
2026-05-10 20:53:28.660,610,0.09969419,-0.4867431,-0.18389909,0.0,0.0,0.0
2026-05-10 20:53:28.670,611,0.09969419,-0.4867431,-0.18389909000000002,0.0,0.0,0.0
2026-05-10 20:53:28.680,612,0.09969419,-0.4867431,-0.18389909000000002,0.0,0.0,0.0
2026-05-10 20:53:28.690,613,0.5961263766666667,-0.26492864,-0.34271662999999997,0.0,0.0,0.0
2026-05-10 20:53:28.700,614,0.84434247,-0.15402141,-0.42212539999999993,0.0,0.0,0.0
2026-05-10 20:53:28.710,615,0.84434247,-0.15402141,-0.42212539999999993,0.0,0.0,0.0
2026-05-10 20:53:28.720,616,0.84434247,-0.15402141,-0.4221254,0.0,0.0,0.0
2026-05-10 20:53:28.730,617,0.84434247,-0.15402141,-0.42212539999999993,0.0,0.0,0.0
2026-05-10 20:53:28.740,618,0.6972476799999999,-0.20975025333333333,-0.37183487333333326,0.0,0.0,0.0
2026-05-10 20:53:28.750,619,0.4030581,-0.32120794,-0.27125382,0.0,0.0,0.0
2026-05-10 20:53:28.760,620,0.4030581,-0.32120794,-0.27125382,0.0,0.0,0.0
2026-05-10 20:53:28.770,621,0.4030581,-0.32120794,-0.27125382,0.0,0.0,0.0
2026-05-10 20:53:28.780,622,0.49949541999999997,-0.24873088,-0.28103977,0.0,0.0,0.0
2026-05-10 20:53:28.790,623,0.49949541999999997,-0.24873088,-0.28103977,0.0,0.0,0.0
2026-05-10 20:53:28.800,624,0.49949541999999997,-0.24873088,-0.28103977,0.0,0.0,0.0
2026-05-10 20:53:28.810,625,1.0342509,-0.43567275999999994,-0.5768655,0.0,0.0,0.0
2026-05-10 20:53:28.820,626,1.0342509,-0.43567276,-0.5768655,0.0,0.0,0.0
2026-05-10 20:53:28.830,627,0.5426146833333333,-0.2103618766666667,-0.33023954333333333,0.0,0.0,0.0
2026-05-10 20:53:28.840,628,0.5551529,-0.20631498,-0.33444952999999994,0.0,0.0,0.0
2026-05-10 20:53:28.850,629,0.5551529,-0.20631498,-0.33444952999999994,0.0,0.0,0.0
2026-05-10 20:53:28.860,630,0.5551529,-0.20631498,-0.33444952999999994,0.0,0.0,0.0
2026-05-10 20:53:28.870,631,0.5551529,-0.20631498,-0.33444953,0.0,0.0,0.0
2026-05-10 20:53:28.880,632,0.5551529,-0.20631498,-0.33444952999999994,0.0,0.0,0.0
2026-05-10 20:53:28.890,633,0.5551529,-0.20631498,-0.33444952999999994,0.0,0.0,0.0
2026-05-10 20:53:28.900,634,0.5551529,-0.20631498,-0.33444953,0.0,0.0,0.0
2026-05-10 20:53:28.910,635,0.5832874333333333,-0.20305300666666667,-0.36115697666666663,0.0,0.0,0.0
2026-05-10 20:53:28.920,636,0.5973547,-0.20142202,-0.3745107,0.0,0.0,0.0
2026-05-10 20:53:28.930,637,0.5973547,-0.20142202,-0.3745106999999999,0.0,0.0,0.0
2026-05-10 20:53:28.940,638,0.5973547,-0.20142202,-0.3745106999999999,0.0,0.0,0.0
2026-05-10 20:53:28.950,639,0.5973547,-0.20142202,-0.3745107,0.0,0.0,0.0
2026-05-10 20:53:28.960,640,0.5973547,-0.20142202,-0.3745106999999999,0.0,0.0,0.0
2026-05-10 20:53:28.970,641,0.5973547,-0.20142202,-0.3745107,0.0,0.0,0.0
2026-05-10 20:53:28.980,642,0.6105351333333333,-0.19850153333333334,-0.38011722333333325,0.0,0.0,0.0
2026-05-10 20:53:28.990,643,0.636896,-0.19266056,-0.3913302699999999,0.0,0.0,0.0
2026-05-10 20:53:29.000,644,0.636896,-0.19266056,-0.39133027,0.0,0.0,0.0
2026-05-10 20:53:29.010,645,0.636896,-0.19266056,-0.3913302699999999,0.0,0.0,0.0
2026-05-10 20:53:29.020,646,0.636896,-0.19266056,-0.39133027,0.0,0.0,0.0
2026-05-10 20:53:29.030,647,0.636896,-0.19266056,-0.3913302699999999,0.0,0.0,0.0
2026-05-10 20:53:29.040,648,0.6477727066666666,-0.18416922,-0.39962793,0.0,0.0,0.0
2026-05-10 20:53:29.050,649,0.65321106,-0.17992355,-0.40377676,0.0,0.0,0.0
2026-05-10 20:53:29.060,650,0.65321106,-0.17992354999999996,-0.40377676,0.0,0.0,0.0
2026-05-10 20:53:29.070,651,0.65321106,-0.17992354999999996,-0.40377676,0.0,0.0,0.0
2026-05-10 20:53:29.080,652,0.65321106,-0.17992355,-0.40377676,0.0,0.0,0.0
2026-05-10 20:53:29.090,653,0.65321106,-0.17992354999999996,-0.40377676,0.0,0.0,0.0
2026-05-10 20:53:29.100,654,0.65321106,-0.17992354999999996,-0.40377676,0.0,0.0,0.0
2026-05-10 20:53:29.110,655,0.65321106,-0.17992354999999996,-0.40377676,0.0,0.0,0.0
2026-05-10 20:53:29.120,656,0.65321106,-0.17992355,-0.40377676,0.0,0.0,0.0
2026-05-10 20:53:29.130,657,0.65321106,-0.17992354999999996,-0.40377676,0.0,0.0,0.0
2026-05-10 20:53:29.140,658,0.6915392733333333,-0.17292048999999998,-0.40500000666666663,0.0,0.0,0.0
2026-05-10 20:53:29.150,659,0.7681957,-0.15891437,-0.4074465,0.0,0.0,0.0
2026-05-10 20:53:29.160,660,0.7681957,-0.15891437,-0.4074465,0.0,0.0,0.0
2026-05-10 20:53:29.170,661,0.7948012250000001,-0.2533103775,-0.424824175,0.0,0.0,0.0
2026-05-10 20:53:29.180,662,0.8746177999999999,-0.5364984,-0.4769572,0.0,0.0,0.0
2026-05-10 20:53:29.190,663,0.8080836000000001,-0.28043320666666666,-0.43061673333333333,0.0,0.0,0.0
2026-05-10 20:53:29.200,664,0.7748165,-0.15240061,-0.4074465,0.0,0.0,0.0
2026-05-10 20:53:29.210,665,0.7748165,-0.15240061,-0.4074465,0.0,0.0,0.0
2026-05-10 20:53:29.220,666,0.7748165,-0.15240061,-0.4074465,0.0,0.0,0.0
2026-05-10 20:53:29.230,667,0.7748165,-0.15240061,-0.4074465,0.0,0.0,0.0
2026-05-10 20:53:29.240,668,0.7748165,-0.15240061,-0.4074465,0.0,0.0,0.0
2026-05-10 20:53:29.250,669,0.7748165,-0.15240061,-0.4074465,0.0,0.0,0.0
2026-05-10 20:53:29.260,670,0.7748165,-0.15240061,-0.4074465,0.0,0.0,0.0
2026-05-10 20:53:29.270,671,0.7748165,-0.15240061,-0.4074465,0.0,0.0,0.0
2026-05-10 20:53:29.280,672,0.7748165,-0.15240061,-0.4074465,0.0,0.0,0.0
2026-05-10 20:53:29.290,673,0.7748165,-0.15240061,-0.4074465,0.0,0.0,0.0
2026-05-10 20:53:29.300,674,0.7748165,-0.15240061,-0.4074465,0.0,0.0,0.0
2026-05-10 20:53:29.310,675,0.7748165,-0.15240061,-0.4074465,0.0,0.0,0.0
2026-05-10 20:53:29.320,676,0.7748165,-0.15240061,-0.4074465,0.0,0.0,0.0
2026-05-10 20:53:29.330,677,0.7748165,-0.15240061,-0.4074465,0.0,0.0,0.0
2026-05-10 20:53:29.340,678,0.8090443375,-0.168990825,-0.42722096,0.0,0.0,0.0
2026-05-10 20:53:29.350,679,0.91172785,-0.21876147,-0.48654434,0.0,0.0,0.0
2026-05-10 20:53:29.360,680,0.91172785,-0.21876147,-0.48654434,0.0,0.0,0.0
2026-05-10 20:53:29.370,681,0.91172785,-0.21876147,-0.48654434,0.0,0.0,0.0
2026-05-10 20:53:29.380,682,0.91172785,-0.21876147,-0.48654434,0.0,0.0,0.0
2026-05-10 20:53:29.390,683,1.0003059,-0.28246176,-0.52385324,0.0,0.0,0.0
2026-05-10 20:53:29.400,684,1.0003059,-0.28246176,-0.52385324,0.0,0.0,0.0
2026-05-10 20:53:29.410,685,1.0003059,-0.28246176,-0.52385324,0.0,0.0,0.0
2026-05-10 20:53:29.420,686,1.040367,-0.29683486,-0.5599388,0.0,0.0,0.0
2026-05-10 20:53:29.430,687,1.040367,-0.29683486,-0.5599388,0.0,0.0,0.0
2026-05-10 20:53:29.440,688,1.05825685,-0.31441896,-0.56666667,0.0,0.0,0.0
2026-05-10 20:53:29.450,689,1.0761467,-0.33200306,-0.57339454,0.0,0.0,0.0
2026-05-10 20:53:29.460,690,1.0761467,-0.33200306,-0.57339454,0.0,0.0,0.0
2026-05-10 20:53:29.470,691,1.0761467,-0.33200306,-0.57339454,0.0,0.0,0.0
2026-05-10 20:53:29.480,692,1.0761467,-0.33200306,-0.57339454,0.0,0.0,0.0
2026-05-10 20:53:29.490,693,1.0761467,-0.33200306,-0.57339454,0.0,0.0,0.0
2026-05-10 20:53:29.500,694,1.0761467,-0.33200306,-0.57339454,0.0,0.0,0.0
2026-05-10 20:53:29.510,695,1.0761467,-0.33200306,-0.57339454,0.0,0.0,0.0
2026-05-10 20:53:29.520,696,1.0761467,-0.33200306,-0.57339454,0.0,0.0,0.0
2026-05-10 20:53:29.530,697,1.0761467,-0.33200306,-0.57339454,0.0,0.0,0.0
2026-05-10 20:53:29.540,698,1.0761467,-0.33200306,-0.57339454,0.0,0.0,0.0
2026-05-10 20:53:29.550,699,1.0761467,-0.33200306,-0.57339454,0.0,0.0,0.0
2026-05-10 20:53:29.560,700,1.0761467,-0.33200306,-0.57339454,0.0,0.0,0.0
2026-05-10 20:53:29.570,701,1.0761467,-0.33200306,-0.57339454,0.0,0.0,0.0
2026-05-10 20:53:29.580,702,1.0761467,-0.33200306,-0.57339454,0.0,0.0,0.0
2026-05-10 20:53:29.590,703,1.0761467,-0.33200306,-0.57339454,0.0,0.0,0.0
2026-05-10 20:53:29.600,704,1.0761467,-0.33200306,-0.57339454,0.0,0.0,0.0
2026-05-10 20:53:29.610,705,1.0761467,-0.33200306,-0.57339454,0.0,0.0,0.0
2026-05-10 20:53:29.620,706,1.0761467,-0.33200306,-0.57339454,0.0,0.0,0.0
2026-05-10 20:53:29.630,707,1.0761467,-0.33200306,-0.57339454,0.0,0.0,0.0
2026-05-10 20:53:29.640,708,1.0761467,-0.33200306,-0.57339454,0.0,0.0,0.0
2026-05-10 20:53:29.650,709,1.0761467,-0.33200306,-0.57339454,0.0,0.0,0.0
2026-05-10 20:53:29.660,710,1.0761467,-0.33200306,-0.57339454,0.0,0.0,0.0
2026-05-10 20:53:29.670,711,1.0413506000000001,-0.37797655,-0.5537207133333334,0.0,0.0,0.0
2026-05-10 20:53:29.680,712,0.9717584,-0.46992353,-0.51437306,0.0,0.0,0.0
2026-05-10 20:53:29.690,713,0.9717584,-0.46992353,-0.51437306,0.0,0.0,0.0
2026-05-10 20:53:29.700,714,0.9717584,-0.46992353,-0.51437306,0.0,0.0,0.0
2026-05-10 20:53:29.710,715,0.9717584,-0.46992353,-0.51437306,0.0,0.0,0.0
2026-05-10 20:53:29.720,716,0.9717584,-0.46992353,-0.51437306,0.0,0.0,0.0
2026-05-10 20:53:29.730,717,0.9717584,-0.46992353,-0.51437306,0.0,0.0,0.0
2026-05-10 20:53:29.740,718,0.9717584,-0.46992353,-0.51437306,0.0,0.0,0.0
2026-05-10 20:53:29.750,719,0.7571865299999999,-0.6096789,-0.44403672,0.0,0.0,0.0
2026-05-10 20:53:29.760,720,0.7200815533333333,-0.6319724666666667,-0.4442762633333333,0.0,0.0,0.0
2026-05-10 20:53:29.770,721,0.52981652,-0.743325665,-0.45305810999999996,0.0,0.0,0.0
2026-05-10 20:53:29.780,722,0.41376144,-0.81009173,-0.46136087,0.0,0.0,0.0
2026-05-10 20:53:29.790,723,0.41376144,-0.81009173,-0.46136087,0.0,0.0,0.0
2026-05-10 20:53:29.800,724,0.41376144,-0.81009173,-0.46136087,0.0,0.0,0.0
2026-05-10 20:53:29.810,725,0.41376144,-0.81009173,-0.46136087,0.0,0.0,0.0
2026-05-10 20:53:29.820,726,0.41376144,-0.81009173,-0.46136087,0.0,0.0,0.0
2026-05-10 20:53:29.830,727,0.41376144,-0.81009173,-0.46136087,0.0,0.0,0.0
2026-05-10 20:53:29.840,728,0.41376144,-0.81009173,-0.46136087,0.0,0.0,0.0
2026-05-10 20:53:29.850,729,0.41376144,-0.81009173,-0.46136087,0.0,0.0,0.0
2026-05-10 20:53:29.860,730,0.3244648133333334,-0.8898063500000001,-0.45748726333333334,0.0,0.0,0.0
2026-05-10 20:53:29.870,731,0.2798165,-0.92966366,-0.45555046,0.0,0.0,0.0
2026-05-10 20:53:29.880,732,0.2798165,-0.92966366,-0.45555046,0.0,0.0,0.0
2026-05-10 20:53:29.890,733,0.24148826666666667,-0.9665291066666667,-0.45123852999999997,0.0,0.0,0.0
2026-05-10 20:53:29.900,734,0.1648318,-1.04026,-0.44261467,0.0,0.0,0.0
2026-05-10 20:53:29.910,735,0.1648318,-1.04026,-0.44261467,0.0,0.0,0.0
2026-05-10 20:53:29.920,736,0.1648318,-1.04026,-0.44261467,0.0,0.0,0.0
2026-05-10 20:53:29.930,737,0.1648318,-1.04026,-0.44261467,0.0,0.0,0.0
2026-05-10 20:53:29.940,738,0.1648318,-1.04026,-0.44261467,0.0,0.0,0.0
2026-05-10 20:53:29.950,739,0.1648318,-1.04026,-0.44261467,0.0,0.0,0.0
2026-05-10 20:53:29.960,740,0.1648318,-1.04026,-0.44261467,0.0,0.0,0.0
2026-05-10 20:53:29.970,741,0.04178899,-1.1149848,-0.40377676,0.0,0.0,0.0
2026-05-10 20:53:29.980,742,-0.3556575,-1.1300765,-0.43383790000000005,0.0,0.0,0.0
2026-05-10 20:53:29.990,743,-0.3556575,-1.1300765,-0.4338379,0.0,0.0,0.0
2026-05-10 20:53:30.000,744,-0.3556575,-1.1300765,-0.43383790000000005,0.0,0.0,0.0
2026-05-10 20:53:30.010,745,-0.3556575,-1.1300765,-0.43383790000000005,0.0,0.0,0.0
2026-05-10 20:53:30.020,746,-0.3556575,-1.1300765,-0.43383790000000005,0.0,0.0,0.0
2026-05-10 20:53:30.030,747,-0.3556575,-1.1300765,-0.43383790000000005,0.0,0.0,0.0
2026-05-10 20:53:30.040,748,-0.3556575,-1.1300765,-0.43383790000000005,0.0,0.0,0.0
2026-05-10 20:53:30.050,749,-0.58704895,-1.1412843,-0.5019419,0.0,0.0,0.0
2026-05-10 20:53:30.060,750,-0.58704895,-1.1412843,-0.5019419,0.0,0.0,0.0
2026-05-10 20:53:30.070,751,-0.58704895,-1.1412843,-0.5019419,0.0,0.0,0.0
2026-05-10 20:53:30.080,752,-0.58704895,-1.1412843,-0.5019419,0.0,0.0,0.0
2026-05-10 20:53:30.090,753,-0.58704895,-1.1412843,-0.5019419,0.0,0.0,0.0
2026-05-10 20:53:30.100,754,-0.58704895,-1.1412843,-0.5019419,0.0,0.0,0.0
2026-05-10 20:53:30.110,755,-0.58704895,-1.1412843,-0.5019419,0.0,0.0,0.0
2026-05-10 20:53:30.120,756,-0.65755862,-1.1437970999999998,-0.5130835833333334,0.0,0.0,0.0
2026-05-10 20:53:30.130,757,-0.7985779599999999,-1.1488227,-0.53536695,0.0,0.0,0.0
2026-05-10 20:53:30.140,758,-0.7985779599999999,-1.1488227,-0.53536695,0.0,0.0,0.0
2026-05-10 20:53:30.150,759,-0.7985779599999999,-1.1488227,-0.53536695,0.0,0.0,0.0
2026-05-10 20:53:30.160,760,-0.9846024999999999,-1.1410856,-0.59999996,0.0,0.0,0.0
2026-05-10 20:53:30.170,761,-0.9846025,-1.1410856,-0.59999996,0.0,0.0,0.0
2026-05-10 20:53:30.180,762,-0.9846024999999999,-1.1410856,-0.59999996,0.0,0.0,0.0
2026-05-10 20:53:30.190,763,-1.1312895,-1.1532160666666667,-0.6033282066666666,0.0,0.0,0.0
2026-05-10 20:53:30.200,764,-1.4246635,-1.177477,-0.6099847,0.0,0.0,0.0
2026-05-10 20:53:30.210,765,-1.4246635,-1.177477,-0.6099847,0.0,0.0,0.0
2026-05-10 20:53:30.220,766,-1.4246635,-1.177477,-0.6099847,0.0,0.0,0.0
2026-05-10 20:53:30.230,767,-1.4246635,-1.177477,-0.6099847,0.0,0.0,0.0
2026-05-10 20:53:30.240,768,-1.4246635,-1.177477,-0.6099847,0.0,0.0,0.0
2026-05-10 20:53:30.250,769,-1.4246635,-1.177477,-0.6099847,0.0,0.0,0.0
2026-05-10 20:53:30.260,770,-1.4246635,-1.177477,-0.6099847,0.0,0.0,0.0
2026-05-10 20:53:30.270,771,-1.4246635,-1.177477,-0.6099847,0.0,0.0,0.0
2026-05-10 20:53:30.280,772,-1.6291487666666666,-1.1751630666666666,-0.5325841,0.0,0.0,0.0
2026-05-10 20:53:30.290,773,-1.7313914,-1.1740061,-0.49388380000000004,0.0,0.0,0.0
2026-05-10 20:53:30.300,774,-1.7313914,-1.1740061,-0.4938838,0.0,0.0,0.0
2026-05-10 20:53:30.310,775,-2.057997,-1.0946943,-0.29683486,0.0,0.0,0.0
2026-05-10 20:53:30.320,776,-2.057997,-1.0946943,-0.29683486,0.0,0.0,0.0
2026-05-10 20:53:30.330,777,-2.057997,-1.0946943,-0.29683486,0.0,0.0,0.0
2026-05-10 20:53:30.340,778,-2.057997,-1.0946943,-0.29683486,0.0,0.0,0.0
2026-05-10 20:53:30.350,779,-2.057997,-1.0946943,-0.29683486,0.0,0.0,0.0
2026-05-10 20:53:30.360,780,-2.5288534,-0.9194649,-0.036192663,0.0,0.0,0.0
2026-05-10 20:53:30.370,781,-2.5288534,-0.9194649,-0.036192663,0.0,0.0,0.0
2026-05-10 20:53:30.380,782,-2.5288534,-0.9194649,-0.036192663,0.0,0.0,0.0
2026-05-10 20:53:30.390,783,-2.5288534,-0.9194649,-0.036192663,0.0,0.0,0.0
2026-05-10 20:53:30.400,784,-2.5288534,-0.9194649,-0.036192663,0.0,0.0,0.0
2026-05-10 20:53:30.410,785,-2.631840066666667,-0.8105963666666667,0.13825688133333333,0.0,0.0,0.0
2026-05-10 20:53:30.420,786,-2.656988,-0.4750306,0.6152905,0.0,0.0,0.0
2026-05-10 20:53:30.430,787,-2.4973547,-0.18746178,0.79591745,0.0,0.0,0.0
2026-05-10 20:53:30.440,788,-2.4973547,-0.18746178,0.79591745,0.0,0.0,0.0
2026-05-10 20:53:30.450,789,-2.4973547,-0.18746178,0.79591745,0.0,0.0,0.0
2026-05-10 20:53:30.460,790,-2.4973547,-0.18746178,0.79591745,0.0,0.0,0.0
2026-05-10 20:53:30.470,791,-2.4973547,-0.18746178,0.79591745,0.0,0.0,0.0
2026-05-10 20:53:30.480,792,-2.4973547,-0.18746178,0.79591745,0.0,0.0,0.0
2026-05-10 20:53:30.490,793,-2.4973547,-0.18746178,0.79591745,0.0,0.0,0.0
2026-05-10 20:53:30.500,794,-2.4973547,-0.18746178,0.79591745,0.0,0.0,0.0
2026-05-10 20:53:30.510,795,-2.4973547,-0.18746178,0.79591745,0.0,0.0,0.0
2026-05-10 20:53:30.520,796,-2.563937375,-0.10497324749999999,0.8641972625000001,0.0,0.0,0.0
2026-05-10 20:53:30.530,797,-2.5861316,-0.07747707,0.8869572,0.0,0.0,0.0
2026-05-10 20:53:30.540,798,-2.5861316,-0.07747707,0.8869572,0.0,0.0,0.0
2026-05-10 20:53:30.550,799,-2.6139603,0.2138685,0.97197247,0.0,0.0,0.0
2026-05-10 20:53:30.560,800,-2.6139603,0.2138685,0.97197247,0.0,0.0,0.0
2026-05-10 20:53:30.570,801,-2.55065745,0.3325152975,0.9126376225,0.0,0.0,0.0
2026-05-10 20:53:30.580,802,-2.5295565,0.37206423000000005,0.8928593399999999,0.0,0.0,0.0
2026-05-10 20:53:30.590,803,-2.5295565,0.37206423000000005,0.8928593399999999,0.0,0.0,0.0
2026-05-10 20:53:30.600,804,-2.5295565,0.37206423000000005,0.8928593399999999,0.0,0.0,0.0
2026-05-10 20:53:30.610,805,-2.5295565,0.37206423000000005,0.8928593399999999,0.0,0.0,0.0
2026-05-10 20:53:30.620,806,-2.5295565,0.37206423000000005,0.8928593399999999,0.0,0.0,0.0
2026-05-10 20:53:30.630,807,-2.4863353333333333,0.3992151,0.85330786,0.0,0.0,0.0
2026-05-10 20:53:30.640,808,-2.399893,0.45351684,0.7742049,0.0,0.0,0.0
2026-05-10 20:53:30.650,809,-2.399893,0.45351684,0.7742049,0.0,0.0,0.0
2026-05-10 20:53:30.660,810,-2.399893,0.45351684,0.7742049,0.0,0.0,0.0
2026-05-10 20:53:30.670,811,-2.399893,0.45351684,0.7742049,0.0,0.0,0.0
2026-05-10 20:53:30.680,812,-2.399893,0.45351684,0.7742049,0.0,0.0,0.0
2026-05-10 20:53:30.690,813,-2.3684302,0.4820948033333334,0.74573395,0.0,0.0,0.0
2026-05-10 20:53:30.700,814,-2.3055046,0.53925073,0.68879205,0.0,0.0,0.0
2026-05-10 20:53:30.710,815,-2.3055046,0.53925073,0.68879205,0.0,0.0,0.0
2026-05-10 20:53:30.720,816,-2.3055046,0.53925073,0.68879205,0.0,0.0,0.0
2026-05-10 20:53:30.730,817,-2.3055046,0.53925073,0.68879205,0.0,0.0,0.0
2026-05-10 20:53:30.740,818,-2.3055046,0.53925073,0.68879205,0.0,0.0,0.0
2026-05-10 20:53:30.750,819,-2.3055046,0.53925073,0.68879205,0.0,0.0,0.0
2026-05-10 20:53:30.760,820,-2.3055046,0.53925073,0.68879205,0.0,0.0,0.0
2026-05-10 20:53:30.770,821,-2.2598726333333334,0.5690162966666666,0.6740774666666667,0.0,0.0,0.0
2026-05-10 20:53:30.780,822,-2.1686087,0.62854743,0.6446483,0.0,0.0,0.0
2026-05-10 20:53:30.790,823,-2.1686087,0.62854743,0.6446483,0.0,0.0,0.0
2026-05-10 20:53:30.800,824,-2.1686087,0.62854743,0.6446483,0.0,0.0,0.0
2026-05-10 20:53:30.810,825,-2.1686087,0.62854743,0.6446483,0.0,0.0,0.0
2026-05-10 20:53:30.820,826,-2.1686087,0.62854743,0.6446483,0.0,0.0,0.0
2026-05-10 20:53:30.830,827,-2.1686087,0.62854743,0.6446483,0.0,0.0,0.0
2026-05-10 20:53:30.840,828,-2.1686087,0.62854743,0.6446483,0.0,0.0,0.0
2026-05-10 20:53:30.850,829,-2.1686087,0.62854743,0.6446483,0.0,0.0,0.0
2026-05-10 20:53:30.860,830,-2.1686087,0.62854743,0.6446483,0.0,0.0,0.0
2026-05-10 20:53:30.870,831,-2.1686087,0.62854743,0.6446483,0.0,0.0,0.0
2026-05-10 20:53:30.880,832,-2.1686087,0.62854743,0.6446483,0.0,0.0,0.0
2026-05-10 20:53:30.890,833,-2.0792406333333333,0.6999643433333333,0.7325178333333334,0.0,0.0,0.0
2026-05-10 20:53:30.900,834,-2.0345566,0.7356728,0.7764526000000002,0.0,0.0,0.0
2026-05-10 20:53:30.910,835,-2.0100203333333333,0.7619113,0.8979612666666666,0.0,0.0,0.0
2026-05-10 20:53:30.920,836,-1.9977522,0.77503055,0.9587156,0.0,0.0,0.0
2026-05-10 20:53:30.930,837,-1.9977522,0.77503055,0.9587156,0.0,0.0,0.0
2026-05-10 20:53:30.940,838,-1.9977522,0.77503055,0.9587156,0.0,0.0,0.0
2026-05-10 20:53:30.950,839,-2.0004382333333335,0.7886187333333333,1.0343883666666667,0.0,0.0,0.0
2026-05-10 20:53:30.960,840,-2.0058103,0.8157951,1.1857339,0.0,0.0,0.0
2026-05-10 20:53:30.970,841,-2.0058103,0.8157951,1.1857339,0.0,0.0,0.0
2026-05-10 20:53:30.980,842,-2.0058103,0.8157951,1.1857339,0.0,0.0,0.0
2026-05-10 20:53:30.990,843,-2.0058103,0.8157951,1.1857339,0.0,0.0,0.0
2026-05-10 20:53:31.000,844,-2.0058103,0.8157951,1.1857339,0.0,0.0,0.0
2026-05-10 20:53:31.010,845,-2.0058103,0.8157951,1.1857339,0.0,0.0,0.0
2026-05-10 20:53:31.020,846,-2.0058103,0.8157951,1.1857339,0.0,0.0,0.0
2026-05-10 20:53:31.030,847,-2.0058103,0.8157951,1.1857339,0.0,0.0,0.0
2026-05-10 20:53:31.040,848,-2.0733945,0.9212079599999999,1.3973547,0.0,0.0,0.0
2026-05-10 20:53:31.050,849,-2.073543675,1.118375415,1.5500268,0.0,0.0,0.0
2026-05-10 20:53:31.060,850,-2.0735934,1.1840979,1.6009175000000002,0.0,0.0,0.0
2026-05-10 20:53:31.070,851,-2.0735934,1.1840979,1.6009175000000002,0.0,0.0,0.0
2026-05-10 20:53:31.080,852,-2.0735934,1.1840979,1.6009175000000002,0.0,0.0,0.0
2026-05-10 20:53:31.090,853,-2.0735934,1.1840979,1.6009175000000002,0.0,0.0,0.0
2026-05-10 20:53:31.100,854,-2.0735934,1.1840979,1.6009175,0.0,0.0,0.0
2026-05-10 20:53:31.110,855,-2.0735934,1.1840979,1.6009175000000002,0.0,0.0,0.0
2026-05-10 20:53:31.120,856,-2.0735934,1.1840979,1.6009175000000002,0.0,0.0,0.0
2026-05-10 20:53:31.130,857,-2.0735934,1.1840979,1.6009175000000002,0.0,0.0,0.0
2026-05-10 20:53:31.140,858,-1.9811774666666668,1.3246381666666667,1.3680224333333335,0.0,0.0,0.0
2026-05-10 20:53:31.150,859,-1.9349695,1.3949083,1.2515749,0.0,0.0,0.0
2026-05-10 20:53:31.160,860,-2.2254856,1.754610025,0.89798548,0.0,0.0,0.0
2026-05-10 20:53:31.170,861,-2.0264986,1.574312,1.0436238,0.0,0.0,0.0
2026-05-10 20:53:31.180,862,-2.0264986,1.574312,1.0436238,0.0,0.0,0.0
2026-05-10 20:53:31.190,863,-2.0264986,1.574312,1.0436238,0.0,0.0,0.0
2026-05-10 20:53:31.200,864,-2.0264986,1.574312,1.0436238,0.0,0.0,0.0
2026-05-10 20:53:31.210,865,-2.0264986,1.574312,1.0436238,0.0,0.0,0.0
2026-05-10 20:53:31.220,866,-2.0264986,1.574312,1.0436238,0.0,0.0,0.0
2026-05-10 20:53:31.230,867,-2.139954,1.7325228,0.9184557,0.0,0.0,0.0
2026-05-10 20:53:31.240,868,-2.139954,1.7325228,0.9184557,0.0,0.0,0.0
2026-05-10 20:53:31.250,869,-2.139954,1.7325228,0.9184557,0.0,0.0,0.0
2026-05-10 20:53:31.260,870,-2.139954,1.7325228,0.9184557,0.0,0.0,0.0
2026-05-10 20:53:31.270,871,-2.139954,1.7325228,0.9184557,0.0,0.0,0.0
2026-05-10 20:53:31.280,872,-2.139954,1.7325228,0.9184557,0.0,0.0,0.0
2026-05-10 20:53:31.290,873,-2.139954,1.7325228,0.9184557,0.0,0.0,0.0
2026-05-10 20:53:31.300,874,-2.139954,1.7325228,0.9184557,0.0,0.0,0.0
2026-05-10 20:53:31.310,875,-2.139954,1.7325228,0.9184557,0.0,0.0,0.0
2026-05-10 20:53:31.320,876,-2.4099540000000004,1.8867125999999999,0.75867994,0.0,0.0,0.0
2026-05-10 20:53:31.330,877,-2.544954,1.9638075,0.67879206,0.0,0.0,0.0
2026-05-10 20:53:31.340,878,-2.544954,1.9638075,0.67879206,0.0,0.0,0.0
2026-05-10 20:53:31.350,879,-2.544954,1.9638075,0.67879206,0.0,0.0,0.0
2026-05-10 20:53:31.360,880,-2.544954,1.9638075,0.67879206,0.0,0.0,0.0
2026-05-10 20:53:31.370,881,-2.544954,1.9638075,0.67879206,0.0,0.0,0.0
2026-05-10 20:53:31.380,882,-2.544954,1.9638075,0.67879206,0.0,0.0,0.0
2026-05-10 20:53:31.390,883,-2.544954,1.9638075,0.67879206,0.0,0.0,0.0
2026-05-10 20:53:31.400,884,-2.544954,1.9638075,0.67879206,0.0,0.0,0.0
2026-05-10 20:53:31.410,885,-2.544954,1.9638075,0.67879206,0.0,0.0,0.0
2026-05-10 20:53:31.420,886,-2.6620796,2.0348625,0.6451529,0.0,0.0,0.0
2026-05-10 20:53:31.430,887,-2.6620796,2.0348625,0.6451529,0.0,0.0,0.0
2026-05-10 20:53:31.440,888,-2.6620796,2.0348625,0.6451529,0.0,0.0,0.0
2026-05-10 20:53:31.450,889,-2.6620796,2.0348625,0.6451529,0.0,0.0,0.0
2026-05-10 20:53:31.460,890,-2.6620796,2.0348625,0.6451529,0.0,0.0,0.0
2026-05-10 20:53:31.470,891,-2.6620796,2.0348625,0.6451529,0.0,0.0,0.0
2026-05-10 20:53:31.480,892,-2.6620796,2.0348625,0.6451529,0.0,0.0,0.0
2026-05-10 20:53:31.490,893,-2.6620796,2.0348625,0.6451529,0.0,0.0,0.0
2026-05-10 20:53:31.500,894,-2.6620796,2.0348625,0.6451529,0.0,0.0,0.0
2026-05-10 20:53:31.510,895,-2.6620796,2.0348625,0.6451529,0.0,0.0,0.0
2026-05-10 20:53:31.520,896,-2.6248701,2.0376683499999997,0.6486697,0.0,0.0,0.0
2026-05-10 20:53:31.530,897,-2.5876606,2.0404742,0.6521865,0.0,0.0,0.0
2026-05-10 20:53:31.540,898,-2.5876606,2.0404742,0.6521865,0.0,0.0,0.0
2026-05-10 20:53:31.550,899,-2.5876606,2.0404742,0.6521865,0.0,0.0,0.0
2026-05-10 20:53:31.560,900,-2.5876606,2.0404742,0.6521865,0.0,0.0,0.0
2026-05-10 20:53:31.570,901,-2.5876606,2.0404742,0.6521865,0.0,0.0,0.0
2026-05-10 20:53:31.580,902,-2.5876606,2.0404742,0.6521865,0.0,0.0,0.0
2026-05-10 20:53:31.590,903,-2.5876606,2.0404742,0.6521865,0.0,0.0,0.0
2026-05-10 20:53:31.600,904,-2.5876606,2.0404742,0.6521865,0.0,0.0,0.0
2026-05-10 20:53:31.610,905,-2.4880733,1.9814526,0.61977065,0.0,0.0,0.0
2026-05-10 20:53:31.620,906,-2.4880733,1.9814526,0.61977065,0.0,0.0,0.0
2026-05-10 20:53:31.630,907,-2.4880733,1.9814526,0.61977065,0.0,0.0,0.0
2026-05-10 20:53:31.640,908,-2.4880733,1.9814526,0.61977065,0.0,0.0,0.0
2026-05-10 20:53:31.650,909,-2.4880733,1.9814526,0.61977065,0.0,0.0,0.0
2026-05-10 20:53:31.660,910,-2.4880733,1.9814526,0.61977065,0.0,0.0,0.0
2026-05-10 20:53:31.670,911,-2.4880733,1.9814526,0.61977065,0.0,0.0,0.0
2026-05-10 20:53:31.680,912,-2.4642915666666667,1.9370081333333333,0.61977065,0.0,0.0,0.0
2026-05-10 20:53:31.690,913,-2.5794751000000002,1.8464169666666665,0.72028035,0.0,0.0,0.0
2026-05-10 20:53:31.700,914,-2.6430123,1.8122325,0.7705352,0.0,0.0,0.0
2026-05-10 20:53:31.710,915,-2.6430123,1.8122325,0.7705352,0.0,0.0,0.0
2026-05-10 20:53:31.720,916,-2.6430123,1.8122324999999997,0.7705352,0.0,0.0,0.0
2026-05-10 20:53:31.730,917,-2.6430123,1.8122324999999997,0.7705352,0.0,0.0,0.0
2026-05-10 20:53:31.740,918,-2.6430123,1.8122324999999997,0.7705352,0.0,0.0,0.0
2026-05-10 20:53:31.750,919,-2.6430123,1.8122324999999997,0.7705352,0.0,0.0,0.0
2026-05-10 20:53:31.760,920,-2.8621765,1.7281651666666666,0.9565391999999999,0.0,0.0,0.0
2026-05-10 20:53:31.770,921,-2.9717586,1.6861315,1.0495412,0.0,0.0,0.0
2026-05-10 20:53:31.780,922,-2.9717586,1.6861315,1.0495412,0.0,0.0,0.0
2026-05-10 20:53:31.790,923,-2.969179533333333,1.6760396999999998,1.0705402,0.0,0.0,0.0
2026-05-10 20:53:31.800,924,-2.9640214,1.6558561,1.1125382,0.0,0.0,0.0
2026-05-10 20:53:31.810,925,-2.9640214,1.6558561,1.1125382,0.0,0.0,0.0
2026-05-10 20:53:31.820,926,-2.9304842,1.6416207,1.1283027666666665,0.0,0.0,0.0
2026-05-10 20:53:31.830,927,-2.8634098,1.6131499,1.1598319,0.0,0.0,0.0
2026-05-10 20:53:31.840,928,-2.8634098,1.6131499,1.1598319,0.0,0.0,0.0
2026-05-10 20:53:31.850,929,-2.8634098,1.6131499,1.1598319,0.0,0.0,0.0
2026-05-10 20:53:31.860,930,-2.8273242,1.4834862,1.1864372,0.0,0.0,0.0
2026-05-10 20:53:31.870,931,-2.8273242,1.4834862,1.1864372,0.0,0.0,0.0
2026-05-10 20:53:31.880,932,-2.8273242,1.4834862,1.1864372,0.0,0.0,0.0
2026-05-10 20:53:31.890,933,-2.8273242,1.4834862,1.1864372,0.0,0.0,0.0
2026-05-10 20:53:31.900,934,-2.8273242,1.4834862,1.1864372,0.0,0.0,0.0
2026-05-10 20:53:31.910,935,-2.8273242,1.4834862,1.1864372,0.0,0.0,0.0
2026-05-10 20:53:31.920,936,-2.8273242,1.4834862,1.1864372,0.0,0.0,0.0
2026-05-10 20:53:31.930,937,-2.8105044000000006,1.3509634000000001,1.1593271,0.0,0.0,0.0
2026-05-10 20:53:31.940,938,-2.8105044000000006,1.3509634000000001,1.1593271,0.0,0.0,0.0
2026-05-10 20:53:31.950,939,-2.8105044000000006,1.3509634000000001,1.1593271,0.0,0.0,0.0
2026-05-10 20:53:31.960,940,-2.8105044000000006,1.3509634000000001,1.1593271,0.0,0.0,0.0
2026-05-10 20:53:31.970,941,-2.8105044,1.3509634,1.1593271,0.0,0.0,0.0
2026-05-10 20:53:31.980,942,-2.8105044000000006,1.3509634000000001,1.1593271,0.0,0.0,0.0
2026-05-10 20:53:31.990,943,-2.8105044000000006,1.3509634000000001,1.1593271,0.0,0.0,0.0
2026-05-10 20:53:32.000,944,-2.8105044000000006,1.3509634000000001,1.1593271,0.0,0.0,0.0
2026-05-10 20:53:32.010,945,-2.8105044000000006,1.3509634000000001,1.1593271,0.0,0.0,0.0
2026-05-10 20:53:32.020,946,-2.8007188,1.2462844,1.1486238,0.0,0.0,0.0
2026-05-10 20:53:32.030,947,-2.8007188,1.2462844,1.1486238,0.0,0.0,0.0
2026-05-10 20:53:32.040,948,-2.8007188,1.2462844,1.1486238,0.0,0.0,0.0
2026-05-10 20:53:32.050,949,-2.8007188,1.2462844,1.1486238,0.0,0.0,0.0
2026-05-10 20:53:32.060,950,-2.8362844,1.1379205,1.2069266,0.0,0.0,0.0
2026-05-10 20:53:32.070,951,-2.8362844,1.1379205,1.2069266,0.0,0.0,0.0
2026-05-10 20:53:32.080,952,-2.8362844,1.1379205,1.2069266,0.0,0.0,0.0
2026-05-10 20:53:32.090,953,-2.8988736,0.9282721666666666,1.1993832666666666,0.0,0.0,0.0
2026-05-10 20:53:32.100,954,-3.024052,0.5089755,1.1842966,0.0,0.0,0.0
2026-05-10 20:53:32.110,955,-3.0240519999999997,0.5089755,1.1842966,0.0,0.0,0.0
2026-05-10 20:53:32.120,956,-3.021101,0.74912846,1.3219113,0.0,0.0,0.0
2026-05-10 20:53:32.130,957,-3.021101,0.74912846,1.3219113,0.0,0.0,0.0
2026-05-10 20:53:32.140,958,-3.0134252000000004,0.4626248866666667,1.0617074333333332,0.0,0.0,0.0
2026-05-10 20:53:32.150,959,-3.0095873,0.3193731,0.9316055,0.0,0.0,0.0
2026-05-10 20:53:32.160,960,-3.0095873,0.3193731,0.9316055,0.0,0.0,0.0
2026-05-10 20:53:32.170,961,-3.0095873,0.3193731,0.9316055,0.0,0.0,0.0
2026-05-10 20:53:32.180,962,-3.0095873,0.3193731,0.9316055,0.0,0.0,0.0
2026-05-10 20:53:32.190,963,-3.0095873,0.3193731,0.9316055,0.0,0.0,0.0
2026-05-10 20:53:32.200,964,-3.0095873,0.3193731,0.9316055,0.0,0.0,0.0
2026-05-10 20:53:32.210,965,-3.0095873,0.3193731,0.9316055,0.0,0.0,0.0
2026-05-10 20:53:32.220,966,-3.0095873,0.3193731,0.9316055,0.0,0.0,0.0
2026-05-10 20:53:32.230,967,-3.0095873,0.3193731,0.9316055,0.0,0.0,0.0
2026-05-10 20:53:32.240,968,-3.0095873,0.3193731,0.9316055,0.0,0.0,0.0
2026-05-10 20:53:32.250,969,-2.735401425,-0.10035168000000001,0.6760971,0.0,0.0,0.0
2026-05-10 20:53:32.260,970,-2.5105047,-0.4274159,0.5296636,0.0,0.0,0.0
2026-05-10 20:53:32.270,971,-2.5105047,-0.4274159,0.5296636,0.0,0.0,0.0
2026-05-10 20:53:32.280,972,-2.39811935,-0.566918965,0.5410321,0.0,0.0,0.0
2026-05-10 20:53:32.290,973,-2.285734,-0.70642203,0.5524006,0.0,0.0,0.0
2026-05-10 20:53:32.300,974,-2.285734,-0.70642203,0.5524006,0.0,0.0,0.0
2026-05-10 20:53:32.310,975,-2.285734,-0.70642203,0.5524006,0.0,0.0,0.0
2026-05-10 20:53:32.320,976,-2.285734,-0.70642203,0.5524006,0.0,0.0,0.0
2026-05-10 20:53:32.330,977,-2.285734,-0.70642203,0.5524006,0.0,0.0,0.0
2026-05-10 20:53:32.340,978,-2.285734,-0.70642203,0.5524006,0.0,0.0,0.0
2026-05-10 20:53:32.350,979,-2.285734,-0.70642203,0.5524006,0.0,0.0,0.0
2026-05-10 20:53:32.360,980,-2.285734,-0.70642203,0.5524006,0.0,0.0,0.0
2026-05-10 20:53:32.370,981,-2.285734,-0.70642203,0.5524006,0.0,0.0,0.0
2026-05-10 20:53:32.380,982,-2.285734,-0.70642203,0.5524006,0.0,0.0,0.0
2026-05-10 20:53:32.390,983,-2.285734,-0.70642203,0.5524006,0.0,0.0,0.0
2026-05-10 20:53:32.400,984,-2.285734,-0.70642203,0.5524006,0.0,0.0,0.0
2026-05-10 20:53:32.410,985,-2.285734,-0.70642203,0.5524006,0.0,0.0,0.0
2026-05-10 20:53:32.420,986,-2.285734,-0.70642203,0.5524006,0.0,0.0,0.0
2026-05-10 20:53:32.430,987,-2.285734,-0.70642203,0.5524006,0.0,0.0,0.0
2026-05-10 20:53:32.440,988,-2.285734,-0.70642203,0.5524006,0.0,0.0,0.0
2026-05-10 20:53:32.450,989,-2.285734,-0.70642203,0.5524006,0.0,0.0,0.0
2026-05-10 20:53:32.460,990,-2.285734,-0.70642203,0.5524006,0.0,0.0,0.0
2026-05-10 20:53:32.470,991,-2.285734,-0.70642203,0.5524006,0.0,0.0,0.0
2026-05-10 20:53:32.480,992,-2.285734,-0.70642203,0.5524006,0.0,0.0,0.0
2026-05-10 20:53:32.490,993,-2.285734,-0.70642203,0.5524006,0.0,0.0,0.0
2026-05-10 20:53:32.500,994,-2.285734,-0.70642203,0.5524006,0.0,0.0,0.0
2026-05-10 20:53:32.510,995,-2.285734,-0.70642203,0.5524006,0.0,0.0,0.0
2026-05-10 20:53:32.520,996,-2.285734,-0.70642203,0.5524006,0.0,0.0,0.0
2026-05-10 20:53:32.530,997,-2.285734,-0.70642203,0.5524006,0.0,0.0,0.0
2026-05-10 20:53:32.540,998,-2.285734,-0.70642203,0.5524006,0.0,0.0,0.0
2026-05-10 20:53:32.550,999,-2.285734,-0.70642203,0.5524006,0.0,0.0,0.0
2026-05-10 20:53:32.560,1000,-2.285734,-0.70642203,0.5524006,0.0,0.0,0.0
