timestamp,id,acc_x,acc_y,acc_z,gyro_x,gyro_y,gyro_z
2026-05-10 20:53:55.550,1,0.052293576,0.8228287,0.375948,0.0,0.0,0.0
2026-05-10 20:53:55.560,2,0.0749617715,0.818191855,0.43476490375,0.0,0.0,0.0
2026-05-10 20:53:55.570,3,0.097629967,0.81355501,0.4935818075,0.0,0.0,0.0
2026-05-10 20:53:55.580,4,0.1202981625,0.8089181649999999,0.5523987112500001,0.0,0.0,0.0
2026-05-10 20:53:55.590,5,0.142966358,0.80428132,0.611215615,0.0,0.0,0.0
2026-05-10 20:53:55.600,6,0.1656345535,0.799644475,0.67003251875,0.0,0.0,0.0
2026-05-10 20:53:55.610,7,0.188302749,0.79500763,0.7288494225000001,0.0,0.0,0.0
2026-05-10 20:53:55.620,8,0.21097094449999998,0.7903707849999999,0.78766632625,0.0,0.0,0.0
2026-05-10 20:53:55.630,9,0.23363914,0.78573394,0.84648323,0.0,0.0,0.0
2026-05-10 20:53:55.640,10,0.23363914,0.78573394,0.84648323,0.0,0.0,0.0
2026-05-10 20:53:55.650,11,0.23363914,0.78573394,0.84648323,0.0,0.0,0.0
2026-05-10 20:53:55.660,12,0.23363914,0.78573394,0.84648323,0.0,0.0,0.0
2026-05-10 20:53:55.670,13,0.23363914,0.78573394,0.84648323,0.0,0.0,0.0
2026-05-10 20:53:55.680,14,0.23363914,0.78573394,0.84648323,0.0,0.0,0.0
2026-05-10 20:53:55.690,15,0.23363914,0.78573394,0.84648323,0.0,0.0,0.0
2026-05-10 20:53:55.700,16,0.23363914,0.78573394,0.84648323,0.0,0.0,0.0
2026-05-10 20:53:55.710,17,0.23363914,0.78573394,0.84648323,0.0,0.0,0.0
2026-05-10 20:53:55.720,18,0.23363914,0.78573394,0.84648323,0.0,0.0,0.0
2026-05-10 20:53:55.730,19,0.23363914,0.78573394,0.84648323,0.0,0.0,0.0
2026-05-10 20:53:55.740,20,0.23363914,0.78573394,0.84648323,0.0,0.0,0.0
2026-05-10 20:53:55.750,21,0.1670081516666667,0.7668756466666666,0.4761111433333334,0.0,0.0,0.0
2026-05-10 20:53:55.760,22,0.033746175,0.72915906,-0.26463303,0.0,0.0,0.0
2026-05-10 20:53:55.770,23,0.033746175,0.7291590600000001,-0.26463303,0.0,0.0,0.0
2026-05-10 20:53:55.780,24,0.033746175,0.7291590600000001,-0.26463303,0.0,0.0,0.0
2026-05-10 20:53:55.790,25,0.033746175,0.7291590600000001,-0.26463303,0.0,0.0,0.0
2026-05-10 20:53:55.800,26,0.033746175,0.72915906,-0.26463303,0.0,0.0,0.0
2026-05-10 20:53:55.810,27,0.033746175,0.7291590600000001,-0.26463303,0.0,0.0,0.0
2026-05-10 20:53:55.820,28,0.033746175,0.72915906,-0.26463303,0.0,0.0,0.0
2026-05-10 20:53:55.830,29,0.033746175,0.7291590600000001,-0.26463303,0.0,0.0,0.0
2026-05-10 20:53:55.840,30,0.033746175,0.7291590600000001,-0.26463303,0.0,0.0,0.0
2026-05-10 20:53:55.850,31,0.033746175,0.72915906,-0.26463303,0.0,0.0,0.0
2026-05-10 20:53:55.860,32,0.033746175,0.7291590600000001,-0.26463303,0.0,0.0,0.0
2026-05-10 20:53:55.870,33,0.17563837875,0.765546615,0.6267316425,0.0,0.0,0.0
2026-05-10 20:53:55.880,34,0.22293578,0.7776758,0.9238532,0.0,0.0,0.0
2026-05-10 20:53:55.890,35,0.22293578,0.7776758,0.9238532,0.0,0.0,0.0
2026-05-10 20:53:55.900,36,0.22293578,0.7776758,0.9238532,0.0,0.0,0.0
2026-05-10 20:53:55.910,37,0.22293578,0.7776758,0.9238532,0.0,0.0,0.0
2026-05-10 20:53:55.920,38,0.22293578,0.7776758,0.9238532,0.0,0.0,0.0
2026-05-10 20:53:55.930,39,0.22293578,0.7776758,0.9238532,0.0,0.0,0.0
2026-05-10 20:53:55.940,40,0.22293578,0.7776758,0.9238532,0.0,0.0,0.0
2026-05-10 20:53:55.950,41,0.22293578,0.7776758,0.9238532,0.0,0.0,0.0
2026-05-10 20:53:55.960,42,0.22293578,0.7776758,0.9238532,0.0,0.0,0.0
2026-05-10 20:53:55.970,43,0.22293578,0.7776758,0.9238532,0.0,0.0,0.0
2026-05-10 20:53:55.980,44,0.22293578,0.7776758,0.9238532,0.0,0.0,0.0
2026-05-10 20:53:55.990,45,0.22293578,0.7776758,0.9238532,0.0,0.0,0.0
2026-05-10 20:53:56.000,46,0.22293578,0.7776758,0.9238532,0.0,0.0,0.0
2026-05-10 20:53:56.010,47,0.22293578,0.7776758,0.9238532,0.0,0.0,0.0
2026-05-10 20:53:56.020,48,0.22293578,0.7776758,0.9238532,0.0,0.0,0.0
2026-05-10 20:53:56.030,49,0.22293578,0.7776758,0.9238532,0.0,0.0,0.0
2026-05-10 20:53:56.040,50,0.22293578,0.7776758,0.9238532,0.0,0.0,0.0
2026-05-10 20:53:56.050,51,0.15974006,0.7743119000000002,1.0041744,0.0,0.0,0.0
2026-05-10 20:53:56.060,52,0.05189092733333333,0.7773700333333333,0.9534097999999999,0.0,0.0,0.0
2026-05-10 20:53:56.070,53,-0.002033639,0.7788991,0.9280275000000001,0.0,0.0,0.0
2026-05-10 20:53:56.080,54,-0.002033639,0.7788991,0.9280275000000001,0.0,0.0,0.0
2026-05-10 20:53:56.090,55,-0.002033639,0.7788991,0.9280275000000001,0.0,0.0,0.0
2026-05-10 20:53:56.100,56,-0.002033639,0.7788991,0.9280275000000001,0.0,0.0,0.0
2026-05-10 20:53:56.110,57,-0.002033639,0.7788991,0.9280275,0.0,0.0,0.0
2026-05-10 20:53:56.120,58,-0.002033639,0.7788991,0.9280275000000001,0.0,0.0,0.0
2026-05-10 20:53:56.130,59,-0.002033639,0.7788991,0.9280275000000001,0.0,0.0,0.0
2026-05-10 20:53:56.140,60,-0.002033639,0.7788991,0.9280275000000001,0.0,0.0,0.0
2026-05-10 20:53:56.150,61,-0.002033639,0.7788991,0.9280275000000001,0.0,0.0,0.0
2026-05-10 20:53:56.160,62,-0.002033639,0.7788991,0.9280275000000001,0.0,0.0,0.0
2026-05-10 20:53:56.170,63,-0.002033639,0.7788991,0.9280275000000001,0.0,0.0,0.0
2026-05-10 20:53:56.180,64,-0.03934250933333333,0.7841998133333332,0.8147757166666666,0.0,0.0,0.0
2026-05-10 20:53:56.190,65,-0.11396025,0.79480124,0.58827215,0.0,0.0,0.0
2026-05-10 20:53:56.200,66,-0.11396025,0.79480124,0.58827215,0.0,0.0,0.0
2026-05-10 20:53:56.210,67,-0.11396025,0.79480124,0.58827215,0.0,0.0,0.0
2026-05-10 20:53:56.220,68,-0.11396025,0.79480124,0.58827215,0.0,0.0,0.0
2026-05-10 20:53:56.230,69,-0.11396025,0.79480124,0.58827215,0.0,0.0,0.0
2026-05-10 20:53:56.240,70,-0.11396025,0.79480124,0.58827215,0.0,0.0,0.0
2026-05-10 20:53:56.250,71,-0.11396025,0.79480124,0.58827215,0.0,0.0,0.0
2026-05-10 20:53:56.260,72,-0.11396025,0.79480124,0.58827215,0.0,0.0,0.0
2026-05-10 20:53:56.270,73,-0.11396025,0.79480124,0.58827215,0.0,0.0,0.0
2026-05-10 20:53:56.280,74,-0.11396025,0.79480124,0.58827215,0.0,0.0,0.0
2026-05-10 20:53:56.290,75,-0.11396025,0.79480124,0.58827215,0.0,0.0,0.0
2026-05-10 20:53:56.300,76,-0.11396025,0.79480124,0.58827215,0.0,0.0,0.0
2026-05-10 20:53:56.310,77,-0.11396025,0.79480124,0.58827215,0.0,0.0,0.0
2026-05-10 20:53:56.320,78,-0.11396025,0.79480124,0.58827215,0.0,0.0,0.0
2026-05-10 20:53:56.330,79,-0.11396025,0.79480124,0.58827215,0.0,0.0,0.0
2026-05-10 20:53:56.340,80,-0.11396025,0.79480124,0.58827215,0.0,0.0,0.0
2026-05-10 20:53:56.350,81,-0.11396025,0.79480124,0.58827215,0.0,0.0,0.0
2026-05-10 20:53:56.360,82,-0.11396025,0.79480124,0.58827215,0.0,0.0,0.0
2026-05-10 20:53:56.370,83,-0.002033639,0.7589144,0.021513760000000003,0.0,0.0,0.0
2026-05-10 20:53:56.380,84,-0.002033639,0.7589144,0.021513760000000003,0.0,0.0,0.0
2026-05-10 20:53:56.390,85,-0.002033639,0.7589144,0.02151376,0.0,0.0,0.0
2026-05-10 20:53:56.400,86,-0.002033639,0.7589144,0.021513760000000003,0.0,0.0,0.0
2026-05-10 20:53:56.410,87,-0.002033639,0.7589144,0.021513760000000003,0.0,0.0,0.0
2026-05-10 20:53:56.420,88,-0.002033639,0.7589144,0.021513760000000003,0.0,0.0,0.0
2026-05-10 20:53:56.430,89,-0.002033639,0.7589144,0.02151376,0.0,0.0,0.0
2026-05-10 20:53:56.440,90,-0.002033639,0.7589144,0.021513760000000003,0.0,0.0,0.0
2026-05-10 20:53:56.450,91,-0.002033639,0.7589144,0.021513760000000003,0.0,0.0,0.0
2026-05-10 20:53:56.460,92,-0.002033639,0.7589144,0.02151376,0.0,0.0,0.0
2026-05-10 20:53:56.470,93,-0.002033639,0.7589144,0.021513760000000003,0.0,0.0,0.0
2026-05-10 20:53:56.480,94,0.04178899,0.7437309,-0.0853211,0.0,0.0,0.0
2026-05-10 20:53:56.490,95,0.04178899,0.7437309,-0.0853211,0.0,0.0,0.0
2026-05-10 20:53:56.500,96,0.04178899,0.7437309,-0.0853211,0.0,0.0,0.0
2026-05-10 20:53:56.510,97,0.04178899,0.7437309,-0.0853211,0.0,0.0,0.0
2026-05-10 20:53:56.520,98,0.04178899,0.7437309,-0.0853211,0.0,0.0,0.0
2026-05-10 20:53:56.530,99,0.04178899,0.7437309,-0.0853211,0.0,0.0,0.0
2026-05-10 20:53:56.540,100,0.04178899,0.7437309,-0.0853211,0.0,0.0,0.0
2026-05-10 20:53:56.550,101,0.04178899,0.7437309,-0.0853211,0.0,0.0,0.0
2026-05-10 20:53:56.560,102,0.04178899,0.7437309,-0.0853211,0.0,0.0,0.0
2026-05-10 20:53:56.570,103,0.04178899,0.7437309,-0.0853211,0.0,0.0,0.0
2026-05-10 20:53:56.580,104,0.030168195999999998,0.7122324,-0.26146787,0.0,0.0,0.0
2026-05-10 20:53:56.590,105,0.017935779,0.6583027,-0.0046941894,0.0,0.0,0.0
2026-05-10 20:53:56.600,106,0.027217125999999998,0.7256880999999998,0.9096789,0.0,0.0,0.0
2026-05-10 20:53:56.610,107,0.027217126,0.7256881,0.9096789,0.0,0.0,0.0
2026-05-10 20:53:56.620,108,0.027217126,0.7256881,0.9096789,0.0,0.0,0.0
2026-05-10 20:53:56.630,109,0.027217125999999998,0.7256880999999998,0.9096789,0.0,0.0,0.0
2026-05-10 20:53:56.640,110,0.027217125999999998,0.7256880999999998,0.9096789,0.0,0.0,0.0
2026-05-10 20:53:56.650,111,0.039653414000000005,0.7386340666666666,0.9553159999999999,0.0,0.0,0.0
2026-05-10 20:53:56.660,112,0.06452599,0.764526,1.0465902,0.0,0.0,0.0
2026-05-10 20:53:56.670,113,0.06452599,0.764526,1.0465902,0.0,0.0,0.0
2026-05-10 20:53:56.680,114,0.06452599,0.764526,1.0465902,0.0,0.0,0.0
2026-05-10 20:53:56.690,115,0.06452599,0.764526,1.0465902,0.0,0.0,0.0
2026-05-10 20:53:56.700,116,0.06452599,0.764526,1.0465902,0.0,0.0,0.0
2026-05-10 20:53:56.710,117,0.09871049999999999,0.8099235333333334,1.1278644333333334,0.0,0.0,0.0
2026-05-10 20:53:56.720,118,0.16707952,0.9007185999999999,1.2904129,0.0,0.0,0.0
2026-05-10 20:53:56.730,119,0.16707952,0.9007185999999999,1.2904129,0.0,0.0,0.0
2026-05-10 20:53:56.740,120,0.16707952,0.9007185999999999,1.2904129,0.0,0.0,0.0
2026-05-10 20:53:56.750,121,0.16707952,0.9007186,1.2904129,0.0,0.0,0.0
2026-05-10 20:53:56.760,122,0.16707952,0.9007185999999999,1.2904129,0.0,0.0,0.0
2026-05-10 20:53:56.770,123,0.16707952,0.9007186,1.2904129,0.0,0.0,0.0
2026-05-10 20:53:56.780,124,0.21063711333333335,0.9085270266666666,1.3894954333333331,0.0,0.0,0.0
2026-05-10 20:53:56.790,125,0.23241590999999998,0.91243124,1.4390367,0.0,0.0,0.0
2026-05-10 20:53:56.800,126,0.225993885,0.9662538199999999,1.5064220499999998,0.0,0.0,0.0
2026-05-10 20:53:56.810,127,0.20847859416666667,0.9919775666666666,1.5014959416666667,0.0,0.0,0.0
2026-05-10 20:53:56.820,128,0.19096330333333333,1.0177013133333332,1.4965698333333333,0.0,0.0,0.0
2026-05-10 20:53:56.830,129,0.1734480125,1.0434250600000001,1.4916437249999999,0.0,0.0,0.0
2026-05-10 20:53:56.840,130,0.15593272166666666,1.0691488066666668,1.4867176166666667,0.0,0.0,0.0
2026-05-10 20:53:56.850,131,0.13841743083333335,1.0948725533333334,1.4817915083333335,0.0,0.0,0.0
2026-05-10 20:53:56.860,132,0.12090214,1.1205963,1.4768654,0.0,0.0,0.0
2026-05-10 20:53:56.870,133,0.12090214,1.1205963,1.4768654,0.0,0.0,0.0
2026-05-10 20:53:56.880,134,0.12090214,1.1205963,1.4768654,0.0,0.0,0.0
2026-05-10 20:53:56.890,135,0.12090214,1.1205963,1.4768654,0.0,0.0,0.0
2026-05-10 20:53:56.900,136,0.12090214,1.1205963,1.4768654,0.0,0.0,0.0
2026-05-10 20:53:56.910,137,0.12090214,1.1205963,1.4768654,0.0,0.0,0.0
2026-05-10 20:53:56.920,138,0.12090214,1.1205963,1.4768654,0.0,0.0,0.0
2026-05-10 20:53:56.930,139,0.12090214,1.1205963,1.4768654,0.0,0.0,0.0
2026-05-10 20:53:56.940,140,0.12090214,1.1205963,1.4768654,0.0,0.0,0.0
2026-05-10 20:53:56.950,141,0.043012230000000005,1.1825688,1.4761467999999998,0.0,0.0,0.0
2026-05-10 20:53:56.960,142,0.04301223,1.1825688,1.4761468,0.0,0.0,0.0
2026-05-10 20:53:56.970,143,0.043012230000000005,1.1825688,1.4761467999999998,0.0,0.0,0.0
2026-05-10 20:53:56.980,144,0.15235984333333333,1.2348318,1.795545266666667,0.0,0.0,0.0
2026-05-10 20:53:56.990,145,0.20703364999999999,1.2609633,1.9552445,0.0,0.0,0.0
2026-05-10 20:53:57.000,146,0.20703364999999999,1.2609633,1.9552445,0.0,0.0,0.0
2026-05-10 20:53:57.010,147,0.22021917666666668,1.2576299666666666,2.0201783,0.0,0.0,0.0
2026-05-10 20:53:57.020,148,0.24659023,1.2509633,2.1500459,0.0,0.0,0.0
2026-05-10 20:53:57.030,149,0.24659023,1.2509633,2.1500459,0.0,0.0,0.0
2026-05-10 20:53:57.040,150,0.24659023,1.2509633,2.1500459,0.0,0.0,0.0
2026-05-10 20:53:57.050,151,0.24659023,1.2509633,2.1500459,0.0,0.0,0.0
2026-05-10 20:53:57.060,152,0.24659023,1.2509633,2.1500459,0.0,0.0,0.0
2026-05-10 20:53:57.070,153,0.24659023,1.2509633,2.1500459,0.0,0.0,0.0
2026-05-10 20:53:57.080,154,0.16279817,1.2782823666666667,2.2730530333333334,0.0,0.0,0.0
2026-05-10 20:53:57.090,155,0.12090214,1.2919419,2.3345566,0.0,0.0,0.0
2026-05-10 20:53:57.100,156,0.12090214,1.2919419,2.3345566,0.0,0.0,0.0
2026-05-10 20:53:57.110,157,0.12090214,1.2919419,2.3345566,0.0,0.0,0.0
2026-05-10 20:53:57.120,158,0.12090214,1.2919419,2.3345566,0.0,0.0,0.0
2026-05-10 20:53:57.130,159,0.12090214,1.2919419,2.3345566,0.0,0.0,0.0
2026-05-10 20:53:57.140,160,0.12090214,1.2919419,2.3345566,0.0,0.0,0.0
2026-05-10 20:53:57.150,161,0.08233435223333334,1.3143017333333333,2.3382262666666667,0.0,0.0,0.0
2026-05-10 20:53:57.160,162,0.0051987767,1.3590214,2.3455656,0.0,0.0,0.0
2026-05-10 20:53:57.170,163,0.0051987767,1.3590214000000003,2.3455656,0.0,0.0,0.0
2026-05-10 20:53:57.180,164,0.0051987767,1.3590214000000003,2.3455656,0.0,0.0,0.0
2026-05-10 20:53:57.190,165,0.0051987767,1.3590214,2.3455656,0.0,0.0,0.0
2026-05-10 20:53:57.200,166,0.0051987767,1.3590214000000003,2.3455656,0.0,0.0,0.0
2026-05-10 20:53:57.210,167,0.0051987767,1.3590214,2.3455656,0.0,0.0,0.0
2026-05-10 20:53:57.220,168,0.0051987767,1.3590214000000003,2.3455656,0.0,0.0,0.0
2026-05-10 20:53:57.230,169,0.0051987767,1.3590214000000003,2.3455656,0.0,0.0,0.0
2026-05-10 20:53:57.240,170,0.0051987767,1.3590214000000003,2.3455656,0.0,0.0,0.0
2026-05-10 20:53:57.250,171,0.0051987767,1.3590214000000003,2.3455656,0.0,0.0,0.0
2026-05-10 20:53:57.260,172,0.0051987767,1.3590214000000003,2.3455656,0.0,0.0,0.0
2026-05-10 20:53:57.270,173,-0.04699286219999999,1.3729510999999999,2.3494392666666664,0.0,0.0,0.0
2026-05-10 20:53:57.280,174,-0.19456166666666666,1.4147757666666667,2.3560652999999996,0.0,0.0,0.0
2026-05-10 20:53:57.290,175,-0.3146483175,1.51174305,2.296563425,0.0,0.0,0.0
2026-05-10 20:53:57.300,176,-0.32588685,1.5347552999999998,2.277477,0.0,0.0,0.0
2026-05-10 20:53:57.310,177,-0.32588685,1.5347553,2.277477,0.0,0.0,0.0
2026-05-10 20:53:57.320,178,-0.32588685,1.5347552999999998,2.277477,0.0,0.0,0.0
2026-05-10 20:53:57.330,179,-0.32588685,1.5347553,2.277477,0.0,0.0,0.0
2026-05-10 20:53:57.340,180,-0.3555861333333333,1.5683639000000003,2.1029612333333336,0.0,0.0,0.0
2026-05-10 20:53:57.350,181,-0.4149847,1.6355811000000002,1.7539296999999998,0.0,0.0,0.0
2026-05-10 20:53:57.360,182,-0.4149847,1.6355811,1.7539297,0.0,0.0,0.0
2026-05-10 20:53:57.370,183,-0.4149847,1.6355811000000002,1.7539296999999998,0.0,0.0,0.0
2026-05-10 20:53:57.380,184,-0.4149847,1.6355811000000002,1.7539296999999998,0.0,0.0,0.0
2026-05-10 20:53:57.390,185,-0.4149847,1.6355811,1.7539297,0.0,0.0,0.0
2026-05-10 20:53:57.400,186,-0.4149847,1.6355811000000002,1.7539296999999998,0.0,0.0,0.0
2026-05-10 20:53:57.410,187,-0.4149847,1.6355811,1.7539297,0.0,0.0,0.0
2026-05-10 20:53:57.420,188,-0.4149847,1.6355811000000002,1.7539296999999998,0.0,0.0,0.0
2026-05-10 20:53:57.430,189,-0.4149847,1.6355811000000002,1.7539296999999998,0.0,0.0,0.0
2026-05-10 20:53:57.440,190,-0.4149847,1.6355811,1.7539297,0.0,0.0,0.0
2026-05-10 20:53:57.450,191,-0.4149847,1.6355811000000002,1.7539296999999998,0.0,0.0,0.0
2026-05-10 20:53:57.460,192,-0.4149847,1.6355811000000002,1.7539296999999998,0.0,0.0,0.0
2026-05-10 20:53:57.470,193,-0.4149847,1.6355811,1.7539297,0.0,0.0,0.0
2026-05-10 20:53:57.480,194,-0.4149847,1.6355811000000002,1.7539296999999998,0.0,0.0,0.0
2026-05-10 20:53:57.490,195,-0.4149847,1.6355811,1.7539297,0.0,0.0,0.0
2026-05-10 20:53:57.500,196,-0.4219877666666667,1.6793425666666668,1.6475077,0.0,0.0,0.0
2026-05-10 20:53:57.510,197,-0.4254893,1.7012233,1.5942967,0.0,0.0,0.0
2026-05-10 20:53:57.520,198,-0.4254893,1.7012232999999999,1.5942967,0.0,0.0,0.0
2026-05-10 20:53:57.530,199,-0.4254893,1.7012233,1.5942967,0.0,0.0,0.0
2026-05-10 20:53:57.540,200,-0.4254893,1.7012232999999999,1.5942967,0.0,0.0,0.0
2026-05-10 20:53:57.550,201,-0.4254893,1.7012232999999999,1.5942967,0.0,0.0,0.0
2026-05-10 20:53:57.560,202,-0.39700816666666666,1.8069623000000001,1.499903233333333,0.0,0.0,0.0
2026-05-10 20:53:57.570,203,-0.3827676,1.8598318,1.4527065,0.0,0.0,0.0
2026-05-10 20:53:57.580,204,-0.3827676,1.8598318,1.4527065,0.0,0.0,0.0
2026-05-10 20:53:57.590,205,-0.3827676,1.8598318,1.4527065,0.0,0.0,0.0
2026-05-10 20:53:57.600,206,-0.3827676,1.8598318,1.4527065,0.0,0.0,0.0
2026-05-10 20:53:57.610,207,-0.3827676,1.8598318,1.4527065,0.0,0.0,0.0
2026-05-10 20:53:57.620,208,-0.3827676,1.8598318,1.4527065,0.0,0.0,0.0
2026-05-10 20:53:57.630,209,-0.3827676,1.8598318,1.4527065,0.0,0.0,0.0
2026-05-10 20:53:57.640,210,-0.3827676,1.8598318,1.4527065,0.0,0.0,0.0
2026-05-10 20:53:57.650,211,-0.3827676,1.8598318,1.4527065,0.0,0.0,0.0
2026-05-10 20:53:57.660,212,-0.3827676,1.8598318,1.4527065,0.0,0.0,0.0
2026-05-10 20:53:57.670,213,-0.3827676,1.8598318,1.4527065,0.0,0.0,0.0
2026-05-10 20:53:57.680,214,-0.3827676,1.8598318,1.4527065,0.0,0.0,0.0
2026-05-10 20:53:57.690,215,-0.3827676,1.8598318,1.4527065,0.0,0.0,0.0
2026-05-10 20:53:57.700,216,-0.3827676,1.8598318,1.4527065,0.0,0.0,0.0
2026-05-10 20:53:57.710,217,-0.3827676,1.8598318,1.4527065,0.0,0.0,0.0
2026-05-10 20:53:57.720,218,-0.3827676,1.8598318,1.4527065,0.0,0.0,0.0
2026-05-10 20:53:57.730,219,-0.3827676,1.8598318,1.4527065,0.0,0.0,0.0
2026-05-10 20:53:57.740,220,-0.3827676,1.8598318,1.4527065,0.0,0.0,0.0
2026-05-10 20:53:57.750,221,-0.3827676,1.8598318,1.4527065,0.0,0.0,0.0
2026-05-10 20:53:57.760,222,-0.3827676,1.8598318,1.4527065,0.0,0.0,0.0
2026-05-10 20:53:57.770,223,-0.3827676,1.8598318,1.4527065,0.0,0.0,0.0
2026-05-10 20:53:57.780,224,-0.3827676,1.8598318,1.4527065,0.0,0.0,0.0
2026-05-10 20:53:57.790,225,-0.3827676,1.8598318,1.4527065,0.0,0.0,0.0
2026-05-10 20:53:57.800,226,-0.47159023333333333,1.8593578,1.4476759,0.0,0.0,0.0
2026-05-10 20:53:57.810,227,-0.6492355,1.8584097999999998,1.4376147,0.0,0.0,0.0
2026-05-10 20:53:57.820,228,-0.6492355,1.8584098,1.4376147,0.0,0.0,0.0
2026-05-10 20:53:57.830,229,-0.6492355,1.8584097999999998,1.4376147,0.0,0.0,0.0
2026-05-10 20:53:57.840,230,-0.6492355,1.8584097999999998,1.4376147,0.0,0.0,0.0
2026-05-10 20:53:57.850,231,-0.6492355,1.8584097999999998,1.4376147,0.0,0.0,0.0
2026-05-10 20:53:57.860,232,-0.6492355,1.8584097999999998,1.4376147,0.0,0.0,0.0
2026-05-10 20:53:57.870,233,-0.71930175,1.7971458,1.4107696333333333,0.0,0.0,0.0
2026-05-10 20:53:57.880,234,-0.85943425,1.6746178,1.3570795,0.0,0.0,0.0
2026-05-10 20:53:57.890,235,-0.85943425,1.6746178,1.3570795,0.0,0.0,0.0
2026-05-10 20:53:57.900,236,-0.85943425,1.6746178,1.3570795,0.0,0.0,0.0
2026-05-10 20:53:57.910,237,-1.1061163,1.4747248,1.1908257,0.0,0.0,0.0
2026-05-10 20:53:57.920,238,-1.1061163,1.4747248,1.1908257,0.0,0.0,0.0
2026-05-10 20:53:57.930,239,-1.1061163,1.4747248,1.1908257,0.0,0.0,0.0
2026-05-10 20:53:57.940,240,-1.6347554000000002,1.033945,0.7691132,0.0,0.0,0.0
2026-05-10 20:53:57.950,241,-1.7764296499999999,0.9098624049999999,0.596097125,0.0,0.0,0.0
2026-05-10 20:53:57.960,242,-1.9232415,0.72497707,0.4527523,0.0,0.0,0.0
2026-05-10 20:53:57.970,243,-2.0228286,0.5814526,0.3670795,0.0,0.0,0.0
2026-05-10 20:53:57.980,244,-2.0228286,0.5814526,0.3670795,0.0,0.0,0.0
2026-05-10 20:53:57.990,245,-2.0228286,0.5814526,0.3670795,0.0,0.0,0.0
2026-05-10 20:53:58.000,246,-2.0228286,0.5814526,0.3670795,0.0,0.0,0.0
2026-05-10 20:53:58.010,247,-2.0228286,0.5814526,0.3670795,0.0,0.0,0.0
2026-05-10 20:53:58.020,248,-2.0228286,0.5814526,0.3670795,0.0,0.0,0.0
2026-05-10 20:53:58.030,249,-2.0228286,0.5814526,0.3670795,0.0,0.0,0.0
2026-05-10 20:53:58.040,250,-2.0228286,0.5814526,0.3670795,0.0,0.0,0.0
2026-05-10 20:53:58.050,251,-2.0228286,0.5814526,0.3670795,0.0,0.0,0.0
2026-05-10 20:53:58.060,252,-2.0228286,0.5814526,0.3670795,0.0,0.0,0.0
2026-05-10 20:53:58.070,253,-2.0228286,0.5814526,0.3670795,0.0,0.0,0.0
2026-05-10 20:53:58.080,254,-2.0228286,0.5814526,0.3670795,0.0,0.0,0.0
2026-05-10 20:53:58.090,255,-2.0228286,0.5814526,0.3670795,0.0,0.0,0.0
2026-05-10 20:53:58.100,256,-2.0599336666666663,0.40353720666666665,0.237038729,0.0,0.0,0.0
2026-05-10 20:53:58.110,257,-2.1341438,0.04770642,-0.023042813,0.0,0.0,0.0
2026-05-10 20:53:58.120,258,-2.1341438,0.04770642,-0.023042813,0.0,0.0,0.0
2026-05-10 20:53:58.130,259,-2.1341438,0.04770642,-0.023042813,0.0,0.0,0.0
2026-05-10 20:53:58.140,260,-2.1341438,0.04770642,-0.023042813,0.0,0.0,0.0
2026-05-10 20:53:58.150,261,-2.1341438,0.04770642,-0.023042813,0.0,0.0,0.0
2026-05-10 20:53:58.160,262,-2.1341438,0.04770642,-0.023042813,0.0,0.0,0.0
2026-05-10 20:53:58.170,263,-2.065576033333333,-0.07699797000000001,-0.09626401866666667,0.0,0.0,0.0
2026-05-10 20:53:58.180,264,-1.9284405,-0.32640675,-0.24270643,0.0,0.0,0.0
2026-05-10 20:53:58.190,265,-1.9284405,-0.32640675,-0.24270643,0.0,0.0,0.0
2026-05-10 20:53:58.200,266,-1.9284405,-0.32640675,-0.24270643,0.0,0.0,0.0
2026-05-10 20:53:58.210,267,-1.9284405,-0.32640675,-0.24270643,0.0,0.0,0.0
2026-05-10 20:53:58.220,268,-1.7005390500000002,-0.5075993625,-0.3794036575,0.0,0.0,0.0
2026-05-10 20:53:58.230,269,-1.6245719,-0.5679969,-0.4249694,0.0,0.0,0.0
2026-05-10 20:53:58.240,270,-0.7180428,-0.6956116,-0.92365444,0.0,0.0,0.0
2026-05-10 20:53:58.250,271,-0.7180428,-0.6956116,-0.92365444,0.0,0.0,0.0
2026-05-10 20:53:58.260,272,-0.41297656666666666,-0.636896,-1.0397910799999999,0.0,0.0,0.0
2026-05-10 20:53:58.270,273,-0.26044345,-0.6075382,-1.0978594,0.0,0.0,0.0
2026-05-10 20:53:58.280,274,-0.21073396,-0.5724719666666668,-1.1183843333333332,0.0,0.0,0.0
2026-05-10 20:53:58.290,275,-0.11131498,-0.5023395,-1.1594342,0.0,0.0,0.0
2026-05-10 20:53:58.300,276,-0.11131498,-0.5023395,-1.1594342,0.0,0.0,0.0
2026-05-10 20:53:58.310,277,-0.11131498,-0.5023395,-1.1594342,0.0,0.0,0.0
2026-05-10 20:53:58.320,278,-0.11131498,-0.5023395,-1.1594342,0.0,0.0,0.0
2026-05-10 20:53:58.330,279,-0.11131498,-0.5023395,-1.1594342,0.0,0.0,0.0
2026-05-10 20:53:58.340,280,-0.11131498,-0.5023395,-1.1594342,0.0,0.0,0.0
2026-05-10 20:53:58.350,281,-0.11131498,-0.5023395,-1.1594342,0.0,0.0,0.0
2026-05-10 20:53:58.360,282,-0.11131498,-0.5023395,-1.1594342,0.0,0.0,0.0
2026-05-10 20:53:58.370,283,-0.0003058104,-0.3944954,-1.1989756,0.0,0.0,0.0
2026-05-10 20:53:58.380,284,-0.0003058104,-0.3944954,-1.1989756,0.0,0.0,0.0
2026-05-10 20:53:58.390,285,-0.0003058104,-0.3944954,-1.1989756,0.0,0.0,0.0
2026-05-10 20:53:58.400,286,-0.0003058104,-0.3944954,-1.1989756,0.0,0.0,0.0
2026-05-10 20:53:58.410,287,-0.0003058104,-0.3944954,-1.1989756,0.0,0.0,0.0
2026-05-10 20:53:58.420,288,-0.0003058104,-0.3944954,-1.1989756,0.0,0.0,0.0
2026-05-10 20:53:58.430,289,-0.0003058104,-0.3944954,-1.1989756,0.0,0.0,0.0
2026-05-10 20:53:58.440,290,0.0097056579,-0.53119268,-1.175890675,0.0,0.0,0.0
2026-05-10 20:53:58.450,291,0.013042814,-0.57675844,-1.1681957,0.0,0.0,0.0
2026-05-10 20:53:58.460,292,0.015416667500000002,-0.5791322875,-1.1423585,0.0,0.0,0.0
2026-05-10 20:53:58.470,293,0.016207952,-0.57992357,-1.1337461,0.0,0.0,0.0
2026-05-10 20:53:58.480,294,0.00037206966666666663,-0.6035372133333333,-1.0175687566666667,0.0,0.0,0.0
2026-05-10 20:53:58.490,295,-0.06295107124999999,-0.62691132,-0.4063149925,0.0,0.0,0.0
2026-05-10 20:53:58.500,296,-0.07350153,-0.61896026,-0.2800153,0.0,0.0,0.0
2026-05-10 20:53:58.510,297,-0.07350153,-0.61896026,-0.2800153,0.0,0.0,0.0
2026-05-10 20:53:58.520,298,-0.07350153,-0.61896026,-0.2800153,0.0,0.0,0.0
2026-05-10 20:53:58.530,299,-0.07350153,-0.61896026,-0.2800153,0.0,0.0,0.0
2026-05-10 20:53:58.540,300,-0.07350153,-0.61896026,-0.2800153,0.0,0.0,0.0
2026-05-10 20:53:58.550,301,-0.07350153,-0.61896026,-0.2800153,0.0,0.0,0.0
2026-05-10 20:53:58.560,302,-0.07350153,-0.61896026,-0.2800153,0.0,0.0,0.0
2026-05-10 20:53:58.570,303,-0.07350153,-0.61896026,-0.2800153,0.0,0.0,0.0
2026-05-10 20:53:58.580,304,-0.07350153,-0.61896026,-0.2800153,0.0,0.0,0.0
2026-05-10 20:53:58.590,305,-0.07350153,-0.61896026,-0.2800153,0.0,0.0,0.0
2026-05-10 20:53:58.600,306,-0.07350153,-0.61896026,-0.2800153,0.0,0.0,0.0
2026-05-10 20:53:58.610,307,-0.07350153,-0.61896026,-0.2800153,0.0,0.0,0.0
2026-05-10 20:53:58.620,308,-0.07350153,-0.61896026,-0.2800153,0.0,0.0,0.0
2026-05-10 20:53:58.630,309,-0.07350153,-0.61896026,-0.2800153,0.0,0.0,0.0
2026-05-10 20:53:58.640,310,-0.07350153,-0.61896026,-0.2800153,0.0,0.0,0.0
2026-05-10 20:53:58.650,311,0.0791016825,-0.8778249650000001,-0.023134558000000006,0.0,0.0,0.0
2026-05-10 20:53:58.660,312,0.20509173,-1.0712539,0.25362387,0.0,0.0,0.0
2026-05-10 20:53:58.670,313,0.20509173,-1.0712539,0.25362387,0.0,0.0,0.0
2026-05-10 20:53:58.680,314,0.20509173,-1.0712539,0.25362387,0.0,0.0,0.0
2026-05-10 20:53:58.690,315,0.20509173,-1.0712539,0.25362387,0.0,0.0,0.0
2026-05-10 20:53:58.700,316,0.20509173,-1.0712539,0.25362387,0.0,0.0,0.0
2026-05-10 20:53:58.710,317,0.20509173,-1.0712539,0.25362387,0.0,0.0,0.0
2026-05-10 20:53:58.720,318,0.20509173,-1.0712539,0.25362387,0.0,0.0,0.0
2026-05-10 20:53:58.730,319,0.20509173,-1.0712539,0.25362387,0.0,0.0,0.0
2026-05-10 20:53:58.740,320,0.20509173,-1.0712539,0.25362387,0.0,0.0,0.0
2026-05-10 20:53:58.750,321,0.20509173,-1.0712539,0.25362387,0.0,0.0,0.0
2026-05-10 20:53:58.760,322,0.20509173,-1.0712539,0.25362387,0.0,0.0,0.0
2026-05-10 20:53:58.770,323,0.20509173,-1.0712539,0.25362387,0.0,0.0,0.0
2026-05-10 20:53:58.780,324,0.20509173,-1.0712539,0.25362387,0.0,0.0,0.0
2026-05-10 20:53:58.790,325,0.33475536,-1.0782874,0.26288992,0.0,0.0,0.0
2026-05-10 20:53:58.800,326,0.33475536,-1.0782874,0.26288992,0.0,0.0,0.0
2026-05-10 20:53:58.810,327,0.33475536,-1.0782874,0.26288992,0.0,0.0,0.0
2026-05-10 20:53:58.820,328,0.33475536,-1.0782874,0.26288992,0.0,0.0,0.0
2026-05-10 20:53:58.830,329,0.33475536,-1.0782874,0.26288992,0.0,0.0,0.0
2026-05-10 20:53:58.840,330,0.33475536,-1.0782874,0.26288992,0.0,0.0,0.0
2026-05-10 20:53:58.850,331,0.45918958666666665,-1.1009174,0.25799695333333333,0.0,0.0,0.0
2026-05-10 20:53:58.860,332,0.5214067,-1.1122324,0.25555047,0.0,0.0,0.0
2026-05-10 20:53:58.870,333,0.5214067,-1.1122324,0.25555047,0.0,0.0,0.0
2026-05-10 20:53:58.880,334,0.5214067,-1.1122324,0.25555047,0.0,0.0,0.0
2026-05-10 20:53:58.890,335,0.5214067,-1.1122324,0.25555047,0.0,0.0,0.0
2026-05-10 20:53:58.900,336,0.5214067,-1.1122324,0.25555047,0.0,0.0,0.0
2026-05-10 20:53:58.910,337,0.5214067,-1.1122324,0.25555047,0.0,0.0,0.0
2026-05-10 20:53:58.920,338,0.70958716,-1.1164067,0.21120796,0.0,0.0,0.0
2026-05-10 20:53:58.930,339,0.70958716,-1.1164067,0.21120796,0.0,0.0,0.0
2026-05-10 20:53:58.940,340,0.7772018533333332,-1.1274872333333332,0.18728848666666667,0.0,0.0,0.0
2026-05-10 20:53:58.950,341,0.91243124,-1.1496483,0.13944954,0.0,0.0,0.0
2026-05-10 20:53:58.960,342,0.91243124,-1.1496483,0.13944954,0.0,0.0,0.0
2026-05-10 20:53:58.970,343,0.91243124,-1.1496483,0.13944954,0.0,0.0,0.0
2026-05-10 20:53:58.980,344,0.91243124,-1.1496483,0.13944954,0.0,0.0,0.0
2026-05-10 20:53:58.990,345,0.91243124,-1.1496483,0.13944954,0.0,0.0,0.0
2026-05-10 20:53:59.000,346,0.91243124,-1.1496483,0.13944954,0.0,0.0,0.0
2026-05-10 20:53:59.010,347,0.91243124,-1.1496483,0.13944954,0.0,0.0,0.0
2026-05-10 20:53:59.020,348,0.91243124,-1.1496483,0.13944954,0.0,0.0,0.0
2026-05-10 20:53:59.030,349,0.91243124,-1.1496483,0.13944954,0.0,0.0,0.0
2026-05-10 20:53:59.040,350,0.91243124,-1.1496483,0.13944954,0.0,0.0,0.0
2026-05-10 20:53:59.050,351,0.91243124,-1.1496483,0.13944954,0.0,0.0,0.0
2026-05-10 20:53:59.060,352,0.91243124,-1.1496483,0.13944954,0.0,0.0,0.0
2026-05-10 20:53:59.070,353,1.0808308133333333,-1.1743781666666666,0.09207951333333335,0.0,0.0,0.0
2026-05-10 20:53:59.080,354,1.1650306,-1.1867431,0.0683945,0.0,0.0,0.0
2026-05-10 20:53:59.090,355,1.1650306,-1.1867431,0.0683945,0.0,0.0,0.0
2026-05-10 20:53:59.100,356,1.1650306,-1.1867431,0.0683945,0.0,0.0,0.0
2026-05-10 20:53:59.110,357,1.1650306,-1.1867431,0.0683945,0.0,0.0,0.0
2026-05-10 20:53:59.120,358,1.1650306,-1.1867431,0.0683945,0.0,0.0,0.0
2026-05-10 20:53:59.130,359,1.2902446666666665,-1.2323802,0.04321610906666667,0.0,0.0,0.0
2026-05-10 20:53:59.140,360,1.5406728,-1.3236544,-0.0071406728,0.0,0.0,0.0
2026-05-10 20:53:59.150,361,1.5406728,-1.3236544,-0.0071406728,0.0,0.0,0.0
2026-05-10 20:53:59.160,362,1.5406728,-1.3236544,-0.0071406728,0.0,0.0,0.0
2026-05-10 20:53:59.170,363,1.5406728,-1.3236544,-0.0071406728,0.0,0.0,0.0
2026-05-10 20:53:59.180,364,1.5406728,-1.3236544,-0.0071406728,0.0,0.0,0.0
2026-05-10 20:53:59.190,365,1.7705351,-1.3585168,-0.12262997000000002,0.0,0.0,0.0
2026-05-10 20:53:59.200,366,1.7705351,-1.3585168,-0.12262997000000002,0.0,0.0,0.0
2026-05-10 20:53:59.210,367,1.7705351,-1.3585168,-0.12262997,0.0,0.0,0.0
2026-05-10 20:53:59.220,368,1.7705351,-1.3585168,-0.12262997000000002,0.0,0.0,0.0
2026-05-10 20:53:59.230,369,1.7705351,-1.3585168,-0.12262997000000002,0.0,0.0,0.0
2026-05-10 20:53:59.240,370,1.7705351,-1.3585168,-0.12262997000000002,0.0,0.0,0.0
2026-05-10 20:53:59.250,371,1.8281294333333333,-1.3715290666666666,-0.13710499333333334,0.0,0.0,0.0
2026-05-10 20:53:59.260,372,1.9433181,-1.3975536,-0.16605504,0.0,0.0,0.0
2026-05-10 20:53:59.270,373,1.9433181,-1.3975536,-0.16605504,0.0,0.0,0.0
2026-05-10 20:53:59.280,374,1.9433181,-1.3975536,-0.16605504,0.0,0.0,0.0
2026-05-10 20:53:59.290,375,1.9433181,-1.3975536,-0.16605504,0.0,0.0,0.0
2026-05-10 20:53:59.300,376,1.9433181,-1.3975536,-0.16605504,0.0,0.0,0.0
2026-05-10 20:53:59.310,377,1.9433181,-1.3975536,-0.16605504,0.0,0.0,0.0
2026-05-10 20:53:59.320,378,1.9433181,-1.3975536,-0.16605504,0.0,0.0,0.0
2026-05-10 20:53:59.330,379,1.9433181,-1.3975536,-0.16605504,0.0,0.0,0.0
2026-05-10 20:53:59.340,380,1.9433181,-1.3975536,-0.16605504,0.0,0.0,0.0
2026-05-10 20:53:59.350,381,2.0729816,-1.5008104,-0.2182416,0.0,0.0,0.0
2026-05-10 20:53:59.360,382,2.0729816,-1.5008104,-0.2182416,0.0,0.0,0.0
2026-05-10 20:53:59.370,383,2.0729816,-1.5008104,-0.2182416,0.0,0.0,0.0
2026-05-10 20:53:59.380,384,2.0729816,-1.5008104,-0.2182416,0.0,0.0,0.0
2026-05-10 20:53:59.390,385,2.0729816,-1.5008104,-0.2182416,0.0,0.0,0.0
2026-05-10 20:53:59.400,386,2.1157033,-1.6672783000000002,-0.31620798,0.0,0.0,0.0
2026-05-10 20:53:59.410,387,2.1157033,-1.6672783,-0.31620798,0.0,0.0,0.0
2026-05-10 20:53:59.420,388,2.1157033,-1.6672783000000002,-0.31620798,0.0,0.0,0.0
2026-05-10 20:53:59.430,389,2.1451273333333334,-1.6803618666666666,-0.3654077666666667,0.0,0.0,0.0
2026-05-10 20:53:59.440,390,2.2039754,-1.706529,-0.46380734,0.0,0.0,0.0
2026-05-10 20:53:59.450,391,2.2039754,-1.706529,-0.46380734,0.0,0.0,0.0
2026-05-10 20:53:59.460,392,2.2039754,-1.706529,-0.46380734,0.0,0.0,0.0
2026-05-10 20:53:59.470,393,2.2039754,-1.706529,-0.46380734,0.0,0.0,0.0
2026-05-10 20:53:59.480,394,2.2039754,-1.706529,-0.46380734,0.0,0.0,0.0
2026-05-10 20:53:59.490,395,2.2039754,-1.706529,-0.46380734,0.0,0.0,0.0
2026-05-10 20:53:59.500,396,2.2039754,-1.706529,-0.46380734,0.0,0.0,0.0
2026-05-10 20:53:59.510,397,2.2039754,-1.706529,-0.46380734,0.0,0.0,0.0
2026-05-10 20:53:59.520,398,2.279408666666667,-1.7394851666666666,-0.5821916433333333,0.0,0.0,0.0
2026-05-10 20:53:59.530,399,2.4302752,-1.8053975,-0.81896025,0.0,0.0,0.0
2026-05-10 20:53:59.540,400,2.4302752,-1.8053975,-0.81896025,0.0,0.0,0.0
2026-05-10 20:53:59.550,401,2.4302752,-1.8053975,-0.81896025,0.0,0.0,0.0
2026-05-10 20:53:59.560,402,2.4302752,-1.8053975,-0.81896025,0.0,0.0,0.0
2026-05-10 20:53:59.570,403,2.4302752,-1.8053975,-0.81896025,0.0,0.0,0.0
2026-05-10 20:53:59.580,404,2.4302752,-1.8053975,-0.81896025,0.0,0.0,0.0
2026-05-10 20:53:59.590,405,2.4302752,-1.8053975,-0.81896025,0.0,0.0,0.0
2026-05-10 20:53:59.600,406,2.4302752,-1.8053975,-0.81896025,0.0,0.0,0.0
2026-05-10 20:53:59.610,407,2.4302752,-1.8053975,-0.81896025,0.0,0.0,0.0
2026-05-10 20:53:59.620,408,2.4302752,-1.8053975,-0.81896025,0.0,0.0,0.0
2026-05-10 20:53:59.630,409,2.4302752,-1.8053975,-0.81896025,0.0,0.0,0.0
2026-05-10 20:53:59.640,410,2.4302752,-1.8053975,-0.81896025,0.0,0.0,0.0
2026-05-10 20:53:59.650,411,2.4829817,-1.9899083,-1.161575,0.0,0.0,0.0
2026-05-10 20:53:59.660,412,2.4829817,-1.9899083,-1.161575,0.0,0.0,0.0
2026-05-10 20:53:59.670,413,2.4829817,-1.9899083,-1.161575,0.0,0.0,0.0
2026-05-10 20:53:59.680,414,2.4829817,-1.9899083,-1.161575,0.0,0.0,0.0
2026-05-10 20:53:59.690,415,2.5582108,-2.1493425,-1.2919419,0.0,0.0,0.0
2026-05-10 20:53:59.700,416,2.5582108,-2.1493425,-1.2919419,0.0,0.0,0.0
2026-05-10 20:53:59.710,417,2.5575278666666663,-2.174383333333333,-1.3260907,0.0,0.0,0.0
2026-05-10 20:53:59.720,418,2.556162,-2.224465,-1.3943883,0.0,0.0,0.0
2026-05-10 20:53:59.730,419,2.556162,-2.224465,-1.3943883,0.0,0.0,0.0
2026-05-10 20:53:59.740,420,2.6009173,-2.251575,-1.3896024,0.0,0.0,0.0
2026-05-10 20:53:59.750,421,2.6009173,-2.251575,-1.3896024,0.0,0.0,0.0
2026-05-10 20:53:59.760,422,2.6009173,-2.251575,-1.3896024,0.0,0.0,0.0
2026-05-10 20:53:59.770,423,2.6009173,-2.251575,-1.3896024,0.0,0.0,0.0
2026-05-10 20:53:59.780,424,2.6009173,-2.251575,-1.3896024,0.0,0.0,0.0
2026-05-10 20:53:59.790,425,2.6009173,-2.251575,-1.3896024,0.0,0.0,0.0
2026-05-10 20:53:59.800,426,2.6009173,-2.251575,-1.3896024,0.0,0.0,0.0
2026-05-10 20:53:59.810,427,2.6513762,-2.2298622,-1.0854281,0.0,0.0,0.0
2026-05-10 20:53:59.820,428,2.6513762,-2.2298622,-1.0854281,0.0,0.0,0.0
2026-05-10 20:53:59.830,429,2.6513762,-2.2298622,-1.0854281,0.0,0.0,0.0
2026-05-10 20:53:59.840,430,2.6513762,-2.2298622,-1.0854281,0.0,0.0,0.0
2026-05-10 20:53:59.850,431,2.6513762,-2.2298622,-1.0854281,0.0,0.0,0.0
2026-05-10 20:53:59.860,432,2.6513762,-2.2298622,-1.0854281,0.0,0.0,0.0
2026-05-10 20:53:59.870,433,2.6513762,-2.2298622,-1.0854281,0.0,0.0,0.0
2026-05-10 20:53:59.880,434,2.6513762,-2.2298622,-1.0854281,0.0,0.0,0.0
2026-05-10 20:53:59.890,435,2.6525993,-2.221101,-0.8753364,0.0,0.0,0.0
2026-05-10 20:53:59.900,436,2.6525993,-2.221101,-0.8753364,0.0,0.0,0.0
2026-05-10 20:53:59.910,437,2.6525993,-2.221101,-0.8753364,0.0,0.0,0.0
2026-05-10 20:53:59.920,438,2.6525993,-2.221101,-0.8753364,0.0,0.0,0.0
2026-05-10 20:53:59.930,439,2.6525993,-2.221101,-0.8753364,0.0,0.0,0.0
2026-05-10 20:53:59.940,440,2.6525993,-2.221101,-0.8753364,0.0,0.0,0.0
2026-05-10 20:53:59.950,441,2.6525993,-2.221101,-0.8753364,0.0,0.0,0.0
2026-05-10 20:53:59.960,442,2.588990733333333,-2.2175994333333335,-0.6961977666666667,0.0,0.0,0.0
2026-05-10 20:53:59.970,443,2.4617736,-2.2105963,-0.3379205,0.0,0.0,0.0
2026-05-10 20:53:59.980,444,2.4617736,-2.2105963,-0.3379205,0.0,0.0,0.0
2026-05-10 20:53:59.990,445,2.4617736,-2.2105963,-0.3379205,0.0,0.0,0.0
2026-05-10 20:54:00.000,446,2.4617736,-2.2105963,-0.3379205,0.0,0.0,0.0
2026-05-10 20:54:00.010,447,2.4358816666666665,-2.2227982,-0.24026504333333334,0.0,0.0,0.0
2026-05-10 20:54:00.020,448,2.3840978,-2.247202,-0.04495413,0.0,0.0,0.0
2026-05-10 20:54:00.030,449,2.3840978,-2.247202,-0.04495413,0.0,0.0,0.0
2026-05-10 20:54:00.040,450,2.3840978,-2.247202,-0.04495413,0.0,0.0,0.0
2026-05-10 20:54:00.050,451,2.2869828,-2.2460397333333333,0.15212028999999996,0.0,0.0,0.0
2026-05-10 20:54:00.060,452,2.2384253,-2.2454586,0.2506575,0.0,0.0,0.0
2026-05-10 20:54:00.070,453,2.2384253,-2.2454586,0.2506575,0.0,0.0,0.0
2026-05-10 20:54:00.080,454,2.2384253,-2.2454586,0.2506575,0.0,0.0,0.0
2026-05-10 20:54:00.090,455,2.2384253,-2.2454586,0.2506575,0.0,0.0,0.0
2026-05-10 20:54:00.100,456,2.1203860999999997,-2.239805025,0.455554305,0.0,0.0,0.0
2026-05-10 20:54:00.110,457,2.0810397,-2.2379205,0.52385324,0.0,0.0,0.0
2026-05-10 20:54:00.120,458,2.0810397,-2.2379205,0.52385324,0.0,0.0,0.0
2026-05-10 20:54:00.130,459,2.0810397,-2.2379205,0.52385324,0.0,0.0,0.0
2026-05-10 20:54:00.140,460,2.0810397,-2.2379205,0.52385324,0.0,0.0,0.0
2026-05-10 20:54:00.150,461,2.0810397,-2.2379205,0.52385324,0.0,0.0,0.0
2026-05-10 20:54:00.160,462,2.0810397,-2.2379205,0.52385324,0.0,0.0,0.0
2026-05-10 20:54:00.170,463,2.0810397,-2.2379205,0.52385324,0.0,0.0,0.0
2026-05-10 20:54:00.180,464,2.0810397,-2.2379205,0.52385324,0.0,0.0,0.0
2026-05-10 20:54:00.190,465,2.0810397,-2.2379205,0.52385324,0.0,0.0,0.0
2026-05-10 20:54:00.200,466,2.0810397,-2.2379205,0.52385324,0.0,0.0,0.0
2026-05-10 20:54:00.210,467,2.0810397,-2.2379205,0.52385324,0.0,0.0,0.0
2026-05-10 20:54:00.220,468,1.95634935,-2.1632301000000003,0.88134176,0.0,0.0,0.0
2026-05-10 20:54:00.230,469,1.9147859,-2.1383333,1.0005046,0.0,0.0,0.0
2026-05-10 20:54:00.240,470,1.7486238,-2.1678898,1.3651376,0.0,0.0,0.0
2026-05-10 20:54:00.250,471,1.7486238,-2.1678898,1.3651376,0.0,0.0,0.0
2026-05-10 20:54:00.260,472,1.7486238,-2.1678898,1.3651376,0.0,0.0,0.0
2026-05-10 20:54:00.270,473,1.7486238,-2.1678898,1.3651376,0.0,0.0,0.0
2026-05-10 20:54:00.280,474,1.7486238,-2.1678898,1.3651376,0.0,0.0,0.0
2026-05-10 20:54:00.290,475,1.7486238,-2.1678898,1.3651376,0.0,0.0,0.0
2026-05-10 20:54:00.300,476,1.7486238,-2.1678898,1.3651376,0.0,0.0,0.0
2026-05-10 20:54:00.310,477,1.7486238,-2.1678898,1.3651376,0.0,0.0,0.0
2026-05-10 20:54:00.320,478,1.7486238,-2.1678898,1.3651376,0.0,0.0,0.0
2026-05-10 20:54:00.330,479,1.7486238,-2.1678898,1.3651376,0.0,0.0,0.0
2026-05-10 20:54:00.340,480,1.7037053666666668,-2.1869164,1.4185881666666667,0.0,0.0,0.0
2026-05-10 20:54:00.350,481,1.1459786,-2.3020337,1.8365902,0.0,0.0,0.0
2026-05-10 20:54:00.360,482,1.1459786,-2.3020337,1.8365902,0.0,0.0,0.0
2026-05-10 20:54:00.370,483,1.1459786,-2.3020337,1.8365902,0.0,0.0,0.0
2026-05-10 20:54:00.380,484,1.1459786,-2.3020337,1.8365902,0.0,0.0,0.0
2026-05-10 20:54:00.390,485,1.1459786,-2.3020337,1.8365902,0.0,0.0,0.0
2026-05-10 20:54:00.400,486,0.9175381699999999,-2.2681959,1.8735015,0.0,0.0,0.0
2026-05-10 20:54:00.410,487,0.9175381699999999,-2.2681959,1.8735015,0.0,0.0,0.0
2026-05-10 20:54:00.420,488,0.91753817,-2.2681959,1.8735015,0.0,0.0,0.0
2026-05-10 20:54:00.430,489,0.9175381699999999,-2.2681959,1.8735015,0.0,0.0,0.0
2026-05-10 20:54:00.440,490,0.9175381699999999,-2.2681959,1.8735015,0.0,0.0,0.0
2026-05-10 20:54:00.450,491,0.91753817,-2.2681959,1.8735015,0.0,0.0,0.0
2026-05-10 20:54:00.460,492,0.9175381699999999,-2.2681959,1.8735015,0.0,0.0,0.0
2026-05-10 20:54:00.470,493,0.91753817,-2.2681959,1.8735015,0.0,0.0,0.0
2026-05-10 20:54:00.480,494,0.9175381699999999,-2.2681959,1.8735015,0.0,0.0,0.0
2026-05-10 20:54:00.490,495,0.9175381699999999,-2.2681959,1.8735015,0.0,0.0,0.0
2026-05-10 20:54:00.500,496,0.9175381699999999,-2.2681959,1.8735015,0.0,0.0,0.0
2026-05-10 20:54:00.510,497,0.6017686133333333,-2.2922528333333334,1.8765545666666668,0.0,0.0,0.0
2026-05-10 20:54:00.520,498,0.51926607,-2.3201835,1.8761468,0.0,0.0,0.0
2026-05-10 20:54:00.530,499,0.51926607,-2.3201835,1.8761468,0.0,0.0,0.0
2026-05-10 20:54:00.540,500,0.28637105,-2.3772681,1.8722731999999997,0.0,0.0,0.0
2026-05-10 20:54:00.550,501,0.16992354,-2.4058104,1.8703364,0.0,0.0,0.0
2026-05-10 20:54:00.560,502,-0.16728338,-2.3996228,1.8665953999999998,0.0,0.0,0.0
2026-05-10 20:54:00.570,503,-0.64391436,-2.3972973,1.854105575,0.0,0.0,0.0
2026-05-10 20:54:00.580,504,-0.7465902,-2.3975534,1.8505658,0.0,0.0,0.0
2026-05-10 20:54:00.590,505,-0.7465902,-2.3975534,1.8505658,0.0,0.0,0.0
2026-05-10 20:54:00.600,506,-0.7465902,-2.3975534,1.8505658,0.0,0.0,0.0
2026-05-10 20:54:00.610,507,-0.7465902,-2.3975534,1.8505658,0.0,0.0,0.0
2026-05-10 20:54:00.620,508,-0.7465902,-2.3975534,1.8505658,0.0,0.0,0.0
2026-05-10 20:54:00.630,509,-1.2203822,-2.202951,1.6529051,0.0,0.0,0.0
2026-05-10 20:54:00.640,510,-1.2203822,-2.202951,1.6529051,0.0,0.0,0.0
2026-05-10 20:54:00.650,511,-1.2203822,-2.202951,1.6529051,0.0,0.0,0.0
2026-05-10 20:54:00.660,512,-1.2203822,-2.202951,1.6529051,0.0,0.0,0.0
2026-05-10 20:54:00.670,513,-1.0567278,-2.42191125,1.09704125,0.0,0.0,0.0
2026-05-10 20:54:00.680,514,-0.9749006,-2.531391375,0.819109325,0.0,0.0,0.0
2026-05-10 20:54:00.690,515,-0.8930734,-2.6408715,0.5411774,0.0,0.0,0.0
2026-05-10 20:54:00.700,516,-0.8930734,-2.6408715,0.5411774,0.0,0.0,0.0
2026-05-10 20:54:00.710,517,-0.8930734,-2.6408715,0.5411774,0.0,0.0,0.0
2026-05-10 20:54:00.720,518,-0.8930734,-2.6408715,0.5411774,0.0,0.0,0.0
2026-05-10 20:54:00.730,519,-0.8930734,-2.6408715,0.5411774,0.0,0.0,0.0
2026-05-10 20:54:00.740,520,-0.8930734,-2.6408715,0.5411774,0.0,0.0,0.0
2026-05-10 20:54:00.750,521,-0.8930734,-2.6408715,0.5411774,0.0,0.0,0.0
2026-05-10 20:54:00.760,522,-0.8930734,-2.6408715,0.5411774,0.0,0.0,0.0
2026-05-10 20:54:00.770,523,-1.2013303,-2.8838992,0.56850153,0.0,0.0,0.0
2026-05-10 20:54:00.780,524,-1.2013303,-2.8838992,0.56850153,0.0,0.0,0.0
2026-05-10 20:54:00.790,525,-1.2013303,-2.8838992,0.56850153,0.0,0.0,0.0
2026-05-10 20:54:00.800,526,-1.2013303,-2.8838992,0.56850153,0.0,0.0,0.0
2026-05-10 20:54:00.810,527,-1.2013303,-2.8838992,0.56850153,0.0,0.0,0.0
2026-05-10 20:54:00.820,528,-1.2013303,-2.8838992,0.56850153,0.0,0.0,0.0
2026-05-10 20:54:00.830,529,-1.2013303,-2.8838992,0.56850153,0.0,0.0,0.0
2026-05-10 20:54:00.840,530,-1.2013303,-2.8838992,0.56850153,0.0,0.0,0.0
2026-05-10 20:54:00.850,531,-1.6310855,-3.029358,0.7983639,0.0,0.0,0.0
2026-05-10 20:54:00.860,532,-2.0334326249999997,-2.86541675,0.9557798,0.0,0.0,0.0
2026-05-10 20:54:00.870,533,-3.2404740000000003,-2.373593,1.4280275,0.0,0.0,0.0
2026-05-10 20:54:00.880,534,-3.2404740000000003,-2.373593,1.4280275,0.0,0.0,0.0
2026-05-10 20:54:00.890,535,-3.2404740000000003,-2.373593,1.4280275,0.0,0.0,0.0
2026-05-10 20:54:00.900,536,-3.240474,-2.373593,1.4280275,0.0,0.0,0.0
2026-05-10 20:54:00.910,537,-3.2404740000000003,-2.373593,1.4280275,0.0,0.0,0.0
2026-05-10 20:54:00.920,538,-3.240474,-2.373593,1.4280275,0.0,0.0,0.0
2026-05-10 20:54:00.930,539,-2.9456370666666665,-2.5463759333333336,1.3313914,0.0,0.0,0.0
2026-05-10 20:54:00.940,540,-2.3559632,-2.8919418,1.1381192,0.0,0.0,0.0
2026-05-10 20:54:00.950,541,-2.3559632,-2.8919418,1.1381192,0.0,0.0,0.0
2026-05-10 20:54:00.960,542,-2.3559632,-2.8919418,1.1381192,0.0,0.0,0.0
2026-05-10 20:54:00.970,543,-2.3559632,-2.8919418,1.1381192,0.0,0.0,0.0
2026-05-10 20:54:00.980,544,-2.5163455666666668,-2.8258205333333333,1.1954790666666666,0.0,0.0,0.0
2026-05-10 20:54:00.990,545,-2.8371103000000004,-2.693578,1.3101988,0.0,0.0,0.0
2026-05-10 20:54:01.000,546,-2.8371103,-2.693578,1.3101988,0.0,0.0,0.0
2026-05-10 20:54:01.010,547,-2.8371103000000004,-2.693578,1.3101988,0.0,0.0,0.0
2026-05-10 20:54:01.020,548,-2.8371103000000004,-2.693578,1.3101988,0.0,0.0,0.0
2026-05-10 20:54:01.030,549,-2.8371103,-2.693578,1.3101988,0.0,0.0,0.0
2026-05-10 20:54:01.040,550,-2.8371103000000004,-2.693578,1.3101988,0.0,0.0,0.0
2026-05-10 20:54:01.050,551,-2.8371103,-2.693578,1.3101988,0.0,0.0,0.0
2026-05-10 20:54:01.060,552,-2.8371103000000004,-2.693578,1.3101988,0.0,0.0,0.0
2026-05-10 20:54:01.070,553,-2.8371103000000004,-2.693578,1.3101988,0.0,0.0,0.0
2026-05-10 20:54:01.080,554,-2.8371103000000004,-2.693578,1.3101988,0.0,0.0,0.0
2026-05-10 20:54:01.090,555,-2.8371103000000004,-2.693578,1.3101988,0.0,0.0,0.0
2026-05-10 20:54:01.100,556,-2.8371103,-2.693578,1.3101988,0.0,0.0,0.0
2026-05-10 20:54:01.110,557,-2.8371103000000004,-2.693578,1.3101988,0.0,0.0,0.0
2026-05-10 20:54:01.120,558,-3.324724975,-2.22072265,1.474419025,0.0,0.0,0.0
2026-05-10 20:54:01.130,559,-3.3295974666666672,-1.8298013333333334,1.4656830333333335,0.0,0.0,0.0
2026-05-10 20:54:01.140,560,-3.2507646,-1.7131499,1.433945,0.0,0.0,0.0
2026-05-10 20:54:01.150,561,-3.2507646,-1.7131499000000001,1.4339450000000002,0.0,0.0,0.0
2026-05-10 20:54:01.160,562,-3.1582722666666663,-1.6870184000000001,1.3734302000000003,0.0,0.0,0.0
2026-05-10 20:54:01.170,563,-2.8012233,-1.5833792,1.1955199,0.0,0.0,0.0
2026-05-10 20:54:01.180,564,-2.629159,-1.5320030000000002,1.1386392,0.0,0.0,0.0
2026-05-10 20:54:01.190,565,-2.629159,-1.5320030000000002,1.1386392,0.0,0.0,0.0
2026-05-10 20:54:01.200,566,-2.629159,-1.532003,1.1386392,0.0,0.0,0.0
2026-05-10 20:54:01.210,567,-2.629159,-1.5320030000000002,1.1386392,0.0,0.0,0.0
2026-05-10 20:54:01.220,568,-2.629159,-1.532003,1.1386392,0.0,0.0,0.0
2026-05-10 20:54:01.230,569,-2.629159,-1.5320030000000002,1.1386392,0.0,0.0,0.0
2026-05-10 20:54:01.240,570,-2.629159,-1.532003,1.1386392,0.0,0.0,0.0
2026-05-10 20:54:01.250,571,-2.629159,-1.5320030000000002,1.1386392,0.0,0.0,0.0
2026-05-10 20:54:01.260,572,-2.629159,-1.5320030000000002,1.1386392,0.0,0.0,0.0
2026-05-10 20:54:01.270,573,-2.246360875,-1.497828725,1.07035935,0.0,0.0,0.0
2026-05-10 20:54:01.280,574,-2.1187615,-1.4864372999999997,1.0475994,0.0,0.0,0.0
2026-05-10 20:54:01.290,575,-2.1187615,-1.4864372999999997,1.0475994,0.0,0.0,0.0
2026-05-10 20:54:01.300,576,-1.5617738,-1.4719725,0.90744644,0.0,0.0,0.0
2026-05-10 20:54:01.310,577,-1.5617738,-1.4719725,0.9074464399999999,0.0,0.0,0.0
2026-05-10 20:54:01.320,578,-1.5617738,-1.4719725,0.90744644,0.0,0.0,0.0
2026-05-10 20:54:01.330,579,-1.5670030666666666,-1.5131549666666666,0.9074464399999999,0.0,0.0,0.0
2026-05-10 20:54:01.340,580,-1.5696177,-1.5337462000000002,0.9074464399999999,0.0,0.0,0.0
2026-05-10 20:54:01.350,581,-2.120993925,-1.8406957,1.0260932600000001,0.0,0.0,0.0
2026-05-10 20:54:01.360,582,-2.304786,-1.9430122,1.0656422,0.0,0.0,0.0
2026-05-10 20:54:01.370,583,-2.304786,-1.9430122,1.0656422,0.0,0.0,0.0
2026-05-10 20:54:01.380,584,-2.304786,-1.9430122,1.0656422,0.0,0.0,0.0
2026-05-10 20:54:01.390,585,-2.304786,-1.9430122,1.0656422,0.0,0.0,0.0
2026-05-10 20:54:01.400,586,-2.304786,-1.9430122,1.0656422,0.0,0.0,0.0
2026-05-10 20:54:01.410,587,-2.304786,-1.9430122,1.0656422,0.0,0.0,0.0
2026-05-10 20:54:01.420,588,-2.304786,-1.9430122,1.0656422,0.0,0.0,0.0
2026-05-10 20:54:01.430,589,-2.304786,-1.9430122,1.0656422,0.0,0.0,0.0
2026-05-10 20:54:01.440,590,-2.304786,-1.9430122,1.0656422,0.0,0.0,0.0
2026-05-10 20:54:01.450,591,-3.5019422,-1.6201835000000002,1.1105046,0.0,0.0,0.0
2026-05-10 20:54:01.460,592,-3.5019422,-1.6201835000000002,1.1105046,0.0,0.0,0.0
2026-05-10 20:54:01.470,593,-3.5019422,-1.6201835000000002,1.1105046,0.0,0.0,0.0
2026-05-10 20:54:01.480,594,-3.5019422,-1.6201835000000002,1.1105046,0.0,0.0,0.0
2026-05-10 20:54:01.490,595,-3.5019422,-1.6201835000000002,1.1105046,0.0,0.0,0.0
2026-05-10 20:54:01.500,596,-3.5019422,-1.6201835,1.1105046,0.0,0.0,0.0
2026-05-10 20:54:01.510,597,-5.183991,-1.046896,1.190107,0.0,0.0,0.0
2026-05-10 20:54:01.520,598,-5.183991,-1.046896,1.190107,0.0,0.0,0.0
2026-05-10 20:54:01.530,599,-5.183991,-1.046896,1.190107,0.0,0.0,0.0
2026-05-10 20:54:01.540,600,-5.183991,-1.046896,1.190107,0.0,0.0,0.0
2026-05-10 20:54:01.550,601,-5.183991,-1.046896,1.190107,0.0,0.0,0.0
2026-05-10 20:54:01.560,602,-5.183991,-1.046896,1.190107,0.0,0.0,0.0
2026-05-10 20:54:01.570,603,-5.183991,-1.046896,1.190107,0.0,0.0,0.0
2026-05-10 20:54:01.580,604,-5.183991,-1.046896,1.190107,0.0,0.0,0.0
2026-05-10 20:54:01.590,605,-5.183991,-1.046896,1.190107,0.0,0.0,0.0
2026-05-10 20:54:01.600,606,-5.183991,-1.046896,1.190107,0.0,0.0,0.0
2026-05-10 20:54:01.610,607,-5.183991,-1.046896,1.190107,0.0,0.0,0.0
2026-05-10 20:54:01.620,608,-5.183991,-1.046896,1.190107,0.0,0.0,0.0
2026-05-10 20:54:01.630,609,-5.183991,-1.046896,1.190107,0.0,0.0,0.0
2026-05-10 20:54:01.640,610,-5.183991,-1.046896,1.190107,0.0,0.0,0.0
2026-05-10 20:54:01.650,611,-5.183991,-1.046896,1.190107,0.0,0.0,0.0
2026-05-10 20:54:01.660,612,-4.7853517666666665,-1.1586493000000002,1.162686,0.0,0.0,0.0
2026-05-10 20:54:01.670,613,-3.9880733,-1.3821559,1.107844,0.0,0.0,0.0
2026-05-10 20:54:01.680,614,-3.9880733,-1.3821559,1.107844,0.0,0.0,0.0
2026-05-10 20:54:01.690,615,-3.9880733,-1.3821559,1.107844,0.0,0.0,0.0
2026-05-10 20:54:01.700,616,-3.9880733,-1.3821559,1.107844,0.0,0.0,0.0
2026-05-10 20:54:01.710,617,-4.15629585,-1.277469385,1.117171225,0.0,0.0,0.0
2026-05-10 20:54:01.720,618,-4.6609635,-0.9634098400000001,1.1451529,0.0,0.0,0.0
2026-05-10 20:54:01.730,619,-4.6609635,-0.9634098400000001,1.1451529,0.0,0.0,0.0
2026-05-10 20:54:01.740,620,-4.683251833333333,-0.9358155266666666,1.1483486,0.0,0.0,0.0
2026-05-10 20:54:01.750,621,-4.728985466666667,-0.9140621666666666,1.1573241333333335,0.0,0.0,0.0
2026-05-10 20:54:01.760,622,-4.7312994,-0.9809327,1.1624924,0.0,0.0,0.0
2026-05-10 20:54:01.770,623,-4.7312994,-0.9809327,1.1624924,0.0,0.0,0.0
2026-05-10 20:54:01.780,624,-4.827935533333334,-1.0746533666666667,1.1888532,0.0,0.0,0.0
2026-05-10 20:54:01.790,625,-4.8762536,-1.1215137,1.2020336,0.0,0.0,0.0
2026-05-10 20:54:01.800,626,-4.8762536,-1.1215137,1.2020336,0.0,0.0,0.0
2026-05-10 20:54:01.810,627,-4.8762536,-1.1215137,1.2020336,0.0,0.0,0.0
2026-05-10 20:54:01.820,628,-4.8762536,-1.1215137,1.2020336,0.0,0.0,0.0
2026-05-10 20:54:01.830,629,-4.8762536,-1.1215137,1.2020336,0.0,0.0,0.0
2026-05-10 20:54:01.840,630,-4.8762536,-1.1215137,1.2020336,0.0,0.0,0.0
2026-05-10 20:54:01.850,631,-4.8762536,-1.1215137,1.2020336,0.0,0.0,0.0
2026-05-10 20:54:01.860,632,-4.8762536,-1.1215137,1.2020336,0.0,0.0,0.0
2026-05-10 20:54:01.870,633,-4.8762536,-1.1215137,1.2020336,0.0,0.0,0.0
2026-05-10 20:54:01.880,634,-4.9440724,-0.8816156666666667,0.86411316,0.0,0.0,0.0
2026-05-10 20:54:01.890,635,-4.8820643,-0.6427064,0.46747708,0.0,0.0,0.0
2026-05-10 20:54:01.900,636,-4.8820643,-0.6427064,0.46747707999999993,0.0,0.0,0.0
2026-05-10 20:54:01.910,637,-4.8820643,-0.6427064,0.46747707999999993,0.0,0.0,0.0
2026-05-10 20:54:01.920,638,-4.7058463,-0.4845005066666667,-0.007405706666666678,0.0,0.0,0.0
2026-05-10 20:54:01.930,639,-4.6177373,-0.40539756,-0.2448471,0.0,0.0,0.0
2026-05-10 20:54:01.940,640,-4.6177373,-0.40539756,-0.2448471,0.0,0.0,0.0
2026-05-10 20:54:01.950,641,-4.6177373,-0.40539756,-0.2448471,0.0,0.0,0.0
2026-05-10 20:54:01.960,642,-4.6177373,-0.40539756,-0.2448471,0.0,0.0,0.0
2026-05-10 20:54:01.970,643,-4.6177373,-0.40539756,-0.2448471,0.0,0.0,0.0
2026-05-10 20:54:01.980,644,-4.6177373,-0.40539756,-0.2448471,0.0,0.0,0.0
2026-05-10 20:54:01.990,645,-4.4921511,-0.30386850000000004,-0.6553873666666666,0.0,0.0,0.0
2026-05-10 20:54:02.000,646,-4.429358,-0.25310397,-0.8606575,0.0,0.0,0.0
2026-05-10 20:54:02.010,647,-4.429358,-0.25310397,-0.8606575,0.0,0.0,0.0
2026-05-10 20:54:02.020,648,-4.429358,-0.25310397,-0.8606575,0.0,0.0,0.0
2026-05-10 20:54:02.030,649,-4.429358,-0.25310397,-0.8606575,0.0,0.0,0.0
2026-05-10 20:54:02.040,650,-4.429358,-0.25310397,-0.8606575,0.0,0.0,0.0
2026-05-10 20:54:02.050,651,-4.429358,-0.25310397,-0.8606575,0.0,0.0,0.0
2026-05-10 20:54:02.060,652,-4.429358,-0.25310397,-0.8606575,0.0,0.0,0.0
2026-05-10 20:54:02.070,653,-4.429358,-0.25310397,-0.8606575,0.0,0.0,0.0
2026-05-10 20:54:02.080,654,-4.429358,-0.25310397,-0.8606575,0.0,0.0,0.0
2026-05-10 20:54:02.090,655,-4.5503516,-0.32487768,-0.8606575,0.0,0.0,0.0
2026-05-10 20:54:02.100,656,-4.5503516,-0.32487768,-0.8606575,0.0,0.0,0.0
2026-05-10 20:54:02.110,657,-4.6041132000000005,-0.3754994933333333,-0.7337767466666666,0.0,0.0,0.0
2026-05-10 20:54:02.120,658,-4.630994,-0.4008104,-0.67033637,0.0,0.0,0.0
2026-05-10 20:54:02.130,659,-4.630994,-0.40081039999999996,-0.6703363699999999,0.0,0.0,0.0
2026-05-10 20:54:02.140,660,-4.630994,-0.40081039999999996,-0.6703363699999999,0.0,0.0,0.0
2026-05-10 20:54:02.150,661,-4.630994,-0.40081039999999996,-0.6703363699999999,0.0,0.0,0.0
2026-05-10 20:54:02.160,662,-4.630994,-0.40081039999999996,-0.6703363699999999,0.0,0.0,0.0
2026-05-10 20:54:02.170,663,-4.668027599999999,-0.4019724866666667,-0.2866462733333333,0.0,0.0,0.0
2026-05-10 20:54:02.180,664,-4.6865444,-0.40255353,-0.094801225,0.0,0.0,0.0
2026-05-10 20:54:02.190,665,-4.6865444,-0.40255353,-0.094801225,0.0,0.0,0.0
2026-05-10 20:54:02.200,666,-4.6865444,-0.40255353,-0.094801225,0.0,0.0,0.0
2026-05-10 20:54:02.210,667,-4.6865444,-0.40255353,-0.094801225,0.0,0.0,0.0
2026-05-10 20:54:02.220,668,-4.6724108,-0.4001732966666667,0.018893986666666668,0.0,0.0,0.0
2026-05-10 20:54:02.230,669,-4.6441436,-0.39541283,0.24628441,0.0,0.0,0.0
2026-05-10 20:54:02.240,670,-4.6441436,-0.39541283,0.24628441,0.0,0.0,0.0
2026-05-10 20:54:02.250,671,-4.470372066666667,-0.5612334499999999,0.8350000033333332,0.0,0.0,0.0
2026-05-10 20:54:02.260,672,-4.3834863,-0.64414376,1.1293578,0.0,0.0,0.0
2026-05-10 20:54:02.270,673,-4.484536366666667,-0.62381754,1.4314984666666666,0.0,0.0,0.0
2026-05-10 20:54:02.280,674,-4.5350614,-0.61365443,1.5825688,0.0,0.0,0.0
2026-05-10 20:54:02.290,675,-4.5350614,-0.61365443,1.5825688,0.0,0.0,0.0
2026-05-10 20:54:02.300,676,-4.5350614,-0.61365443,1.5825688,0.0,0.0,0.0
2026-05-10 20:54:02.310,677,-4.496972733333333,-0.7053313033333333,1.6931345666666668,0.0,0.0,0.0
2026-05-10 20:54:02.320,678,-4.4207954,-0.88868505,1.9142661,0.0,0.0,0.0
2026-05-10 20:54:02.330,679,-4.4207954,-0.88868505,1.9142661,0.0,0.0,0.0
2026-05-10 20:54:02.340,680,-4.4207954,-0.88868505,1.9142661,0.0,0.0,0.0
2026-05-10 20:54:02.350,681,-4.4207954,-0.88868505,1.9142661,0.0,0.0,0.0
2026-05-10 20:54:02.360,682,-4.4207954,-0.88868505,1.9142661,0.0,0.0,0.0
2026-05-10 20:54:02.370,683,-4.4207954,-0.88868505,1.9142661,0.0,0.0,0.0
2026-05-10 20:54:02.380,684,-4.4207954,-0.88868505,1.9142661,0.0,0.0,0.0
2026-05-10 20:54:02.390,685,-4.4207954,-0.88868505,1.9142661,0.0,0.0,0.0
2026-05-10 20:54:02.400,686,-4.4207954,-0.88868505,1.9142661,0.0,0.0,0.0
2026-05-10 20:54:02.410,687,-4.4207954,-0.88868505,1.9142661,0.0,0.0,0.0
2026-05-10 20:54:02.420,688,-4.4207954,-0.88868505,1.9142661,0.0,0.0,0.0
2026-05-10 20:54:02.430,689,-4.4207954,-0.88868505,1.9142661,0.0,0.0,0.0
2026-05-10 20:54:02.440,690,-4.4207954,-0.88868505,1.9142661,0.0,0.0,0.0
2026-05-10 20:54:02.450,691,-4.4207954,-0.88868505,1.9142661,0.0,0.0,0.0
2026-05-10 20:54:02.460,692,-4.028333,-1.1244648,2.3835933,0.0,0.0,0.0
2026-05-10 20:54:02.470,693,-4.028333,-1.1244648,2.3835933,0.0,0.0,0.0
2026-05-10 20:54:02.480,694,-4.028333,-1.1244648,2.3835933,0.0,0.0,0.0
2026-05-10 20:54:02.490,695,-4.028333,-1.1244648,2.3835933,0.0,0.0,0.0
2026-05-10 20:54:02.500,696,-4.028333,-1.1244648,2.3835933,0.0,0.0,0.0
2026-05-10 20:54:02.510,697,-4.028333,-1.1244648,2.3835933,0.0,0.0,0.0
2026-05-10 20:54:02.520,698,-4.028333,-1.1244648,2.3835933,0.0,0.0,0.0
2026-05-10 20:54:02.530,699,-4.028333,-1.1244648,2.3835933,0.0,0.0,0.0
2026-05-10 20:54:02.540,700,-4.028333,-1.1244648,2.3835933,0.0,0.0,0.0
2026-05-10 20:54:02.550,701,-3.661299466666667,-1.0982975999999998,2.1897706333333335,0.0,0.0,0.0
2026-05-10 20:54:02.560,702,-3.4777827,-1.085214,2.0928593,0.0,0.0,0.0
2026-05-10 20:54:02.570,703,-3.4777827,-1.085214,2.0928593,0.0,0.0,0.0
2026-05-10 20:54:02.580,704,-3.4777827,-1.085214,2.0928593,0.0,0.0,0.0
2026-05-10 20:54:02.590,705,-3.4777827,-1.085214,2.0928593,0.0,0.0,0.0
2026-05-10 20:54:02.600,706,-3.4777827,-1.085214,2.0928593,0.0,0.0,0.0
2026-05-10 20:54:02.610,707,-3.4777827,-1.085214,2.0928593,0.0,0.0,0.0
2026-05-10 20:54:02.620,708,-3.41478575,-1.0888379,1.8596789,0.0,0.0,0.0
2026-05-10 20:54:02.630,709,-3.3517888,-1.0924618,1.6264985,0.0,0.0,0.0
2026-05-10 20:54:02.640,710,-3.3517888,-1.0924618,1.6264985,0.0,0.0,0.0
2026-05-10 20:54:02.650,711,-3.312507566666667,-1.1039449666666667,1.534893,0.0,0.0,0.0
2026-05-10 20:54:02.660,712,-3.2339451,-1.1269113,1.351682,0.0,0.0,0.0
2026-05-10 20:54:02.670,713,-3.2339451,-1.1269113,1.351682,0.0,0.0,0.0
2026-05-10 20:54:02.680,714,-3.2347605666666666,-1.1493730666666666,1.351682,0.0,0.0,0.0
2026-05-10 20:54:02.690,715,-3.2363915,-1.1942966,1.351682,0.0,0.0,0.0
2026-05-10 20:54:02.700,716,-3.2363915,-1.1942966,1.351682,0.0,0.0,0.0
2026-05-10 20:54:02.710,717,-3.2363915,-1.1942966,1.351682,0.0,0.0,0.0
2026-05-10 20:54:02.720,718,-3.2363915,-1.1942966,1.351682,0.0,0.0,0.0
2026-05-10 20:54:02.730,719,-3.2618756333333336,-1.2731956666666666,1.44947,0.0,0.0,0.0
2026-05-10 20:54:02.740,720,-3.2746177,-1.3126452,1.4983639999999998,0.0,0.0,0.0
2026-05-10 20:54:02.750,721,-3.1582416666666666,-1.6174974333333332,1.7186900333333333,0.0,0.0,0.0
2026-05-10 20:54:02.760,722,-3.1006117,-1.7073394,1.7519877,0.0,0.0,0.0
2026-05-10 20:54:02.770,723,-3.1006117,-1.7073394,1.7519877,0.0,0.0,0.0
2026-05-10 20:54:02.780,724,-3.1006117,-1.7073394,1.7519877,0.0,0.0,0.0
2026-05-10 20:54:02.790,725,-3.1006117,-1.7073394,1.7519877,0.0,0.0,0.0
2026-05-10 20:54:02.800,726,-3.1006117,-1.7073394,1.7519877,0.0,0.0,0.0
2026-05-10 20:54:02.810,727,-3.1006117,-1.7073394,1.7519877,0.0,0.0,0.0
2026-05-10 20:54:02.820,728,-3.1006117,-1.7073394,1.7519877,0.0,0.0,0.0
2026-05-10 20:54:02.830,729,-3.1006117,-1.7073394,1.7519877,0.0,0.0,0.0
2026-05-10 20:54:02.840,730,-3.1006117,-1.7073394,1.7519877,0.0,0.0,0.0
2026-05-10 20:54:02.850,731,-3.1006117,-1.7073394,1.7519877,0.0,0.0,0.0
2026-05-10 20:54:02.860,732,-3.1006117,-1.7073394,1.7519877,0.0,0.0,0.0
2026-05-10 20:54:02.870,733,-3.1006117,-1.7073394,1.7519877,0.0,0.0,0.0
2026-05-10 20:54:02.880,734,-3.1006117,-1.7073393999999997,1.7519877,0.0,0.0,0.0
2026-05-10 20:54:02.890,735,-3.1006117,-1.7073394,1.7519877,0.0,0.0,0.0
2026-05-10 20:54:02.900,736,-3.1006117,-1.7073394,1.7519877,0.0,0.0,0.0
2026-05-10 20:54:02.910,737,-3.1006117,-1.7073394,1.7519877,0.0,0.0,0.0
2026-05-10 20:54:02.920,738,-3.1006117,-1.7073394,1.7519877,0.0,0.0,0.0
2026-05-10 20:54:02.930,739,-3.1006117,-1.7073394,1.7519877,0.0,0.0,0.0
2026-05-10 20:54:02.940,740,-3.1006117,-1.7073394,1.7519877,0.0,0.0,0.0
2026-05-10 20:54:02.950,741,-3.1006117,-1.7073394,1.7519877,0.0,0.0,0.0
2026-05-10 20:54:02.960,742,-3.1006117,-1.7073394,1.7519877,0.0,0.0,0.0
2026-05-10 20:54:02.970,743,-3.1006117,-1.7073394,1.7519877,0.0,0.0,0.0
2026-05-10 20:54:02.980,744,-3.1006117,-1.7073394,1.7519877,0.0,0.0,0.0
2026-05-10 20:54:02.990,745,-3.1006117,-1.7073394,1.7519877,0.0,0.0,0.0
2026-05-10 20:54:03.000,746,-3.1006117,-1.7073394,1.7519877,0.0,0.0,0.0
2026-05-10 20:54:03.010,747,-3.1006117,-1.7073394,1.7519877,0.0,0.0,0.0
2026-05-10 20:54:03.020,748,-3.1006117,-1.7073393999999997,1.7519877,0.0,0.0,0.0
2026-05-10 20:54:03.030,749,-3.1006117,-1.7073394,1.7519877,0.0,0.0,0.0
2026-05-10 20:54:03.040,750,-3.1006117,-1.7073393999999997,1.7519877,0.0,0.0,0.0
2026-05-10 20:54:03.050,751,-3.1006117,-1.7073393999999997,1.7519877,0.0,0.0,0.0
2026-05-10 20:54:03.060,752,-3.1006117,-1.7073393999999997,1.7519877,0.0,0.0,0.0
2026-05-10 20:54:03.070,753,-2.941998033333333,-1.8034964,1.7235168333333333,0.0,0.0,0.0
2026-05-10 20:54:03.080,754,-2.8626912,-1.8515749,1.7092814,0.0,0.0,0.0
2026-05-10 20:54:03.090,755,-2.8626912,-1.8515749,1.7092814,0.0,0.0,0.0
2026-05-10 20:54:03.100,756,-2.8626912,-1.8515749,1.7092814,0.0,0.0,0.0
2026-05-10 20:54:03.110,757,-2.8626912,-1.8515749,1.7092814,0.0,0.0,0.0
2026-05-10 20:54:03.120,758,-2.8626912,-1.8515749,1.7092814,0.0,0.0,0.0
2026-05-10 20:54:03.130,759,-2.8626912,-1.8515749,1.7092814,0.0,0.0,0.0
2026-05-10 20:54:03.140,760,-2.8626912,-1.8515749,1.7092814,0.0,0.0,0.0
2026-05-10 20:54:03.150,761,-2.8626912,-1.8515749,1.7092814,0.0,0.0,0.0
2026-05-10 20:54:03.160,762,-2.8626912,-1.8515749,1.7092814,0.0,0.0,0.0
2026-05-10 20:54:03.170,763,-2.8626912,-1.8515749,1.7092814,0.0,0.0,0.0
2026-05-10 20:54:03.180,764,-2.8626912,-1.8515749,1.7092814,0.0,0.0,0.0
2026-05-10 20:54:03.190,765,-2.8626912,-1.8515749,1.7092814,0.0,0.0,0.0
2026-05-10 20:54:03.200,766,-2.8626912,-1.8515749,1.7092814,0.0,0.0,0.0
2026-05-10 20:54:03.210,767,-2.6386341333333334,-1.9364576333333332,1.6174669333333334,0.0,0.0,0.0
2026-05-10 20:54:03.220,768,-2.1686087,-2.1268044,1.4185474,0.0,0.0,0.0
2026-05-10 20:54:03.230,769,-2.1686087,-2.1268044,1.4185474000000002,0.0,0.0,0.0
2026-05-10 20:54:03.240,770,-1.6623496,-2.4609888,1.3227676,0.0,0.0,0.0
2026-05-10 20:54:03.250,771,-1.4949082,-2.495107,1.3136544,0.0,0.0,0.0
2026-05-10 20:54:03.260,772,-1.4949082,-2.495107,1.3136544,0.0,0.0,0.0
2026-05-10 20:54:03.270,773,-1.3770642000000002,-2.5314984,1.2479053,0.0,0.0,0.0
2026-05-10 20:54:03.280,774,-1.3770642000000002,-2.5314984,1.2479053,0.0,0.0,0.0
2026-05-10 20:54:03.290,775,-1.3770642,-2.5314984,1.2479053,0.0,0.0,0.0
2026-05-10 20:54:03.300,776,-1.3770642000000002,-2.5314984,1.2479053,0.0,0.0,0.0
2026-05-10 20:54:03.310,777,-1.3770642000000002,-2.5314984,1.2479053,0.0,0.0,0.0
2026-05-10 20:54:03.320,778,-1.3770642000000002,-2.5314984,1.2479053,0.0,0.0,0.0
2026-05-10 20:54:03.330,779,-1.3770642,-2.5314984,1.2479053,0.0,0.0,0.0
2026-05-10 20:54:03.340,780,-1.3770642,-2.5314984,1.2479053,0.0,0.0,0.0
2026-05-10 20:54:03.350,781,-1.3770642,-2.5314984,1.2479053,0.0,0.0,0.0
2026-05-10 20:54:03.360,782,-1.3770642,-2.5314984,1.2479053,0.0,0.0,0.0
2026-05-10 20:54:03.370,783,-1.3770642,-2.5314984,1.2479053,0.0,0.0,0.0
2026-05-10 20:54:03.380,784,-1.3770642,-2.5314984,1.2479053,0.0,0.0,0.0
2026-05-10 20:54:03.390,785,-1.3770642,-2.5314984,1.2479053,0.0,0.0,0.0
2026-05-10 20:54:03.400,786,-1.3770642,-2.5314984,1.2479053,0.0,0.0,0.0
2026-05-10 20:54:03.410,787,-1.3770642,-2.5314984,1.2479053,0.0,0.0,0.0
2026-05-10 20:54:03.420,788,-1.3770642,-2.5314984,1.2479053,0.0,0.0,0.0
2026-05-10 20:54:03.430,789,-1.3770642,-2.5314984,1.2479053,0.0,0.0,0.0
2026-05-10 20:54:03.440,790,-1.3770642,-2.5314984,1.2479053,0.0,0.0,0.0
2026-05-10 20:54:03.450,791,-1.3770642000000002,-2.5314984,1.2479053,0.0,0.0,0.0
2026-05-10 20:54:03.460,792,-1.3770642000000002,-2.5314984,1.2479053,0.0,0.0,0.0
2026-05-10 20:54:03.470,793,-1.3770642000000002,-2.5314984,1.2479053,0.0,0.0,0.0
2026-05-10 20:54:03.480,794,-1.3770642000000002,-2.5314984,1.2479053,0.0,0.0,0.0
2026-05-10 20:54:03.490,795,-1.3770642000000002,-2.5314984,1.2479053,0.0,0.0,0.0
2026-05-10 20:54:03.500,796,-1.3770642000000002,-2.5314984,1.2479053,0.0,0.0,0.0
2026-05-10 20:54:03.510,797,-1.3770642000000002,-2.5314984,1.2479053,0.0,0.0,0.0
2026-05-10 20:54:03.520,798,-1.3638786666666665,-2.5835524999999997,1.15320598,0.0,0.0,0.0
2026-05-10 20:54:03.530,799,-1.3375075999999997,-2.6876607,0.9638073400000001,0.0,0.0,0.0
2026-05-10 20:54:03.540,800,-1.3331345,-2.7126453,0.9235474,0.0,0.0,0.0
2026-05-10 20:54:03.550,801,-1.3331345,-2.7126453,0.9235474,0.0,0.0,0.0
2026-05-10 20:54:03.560,802,-1.3331345,-2.7126453,0.9235474,0.0,0.0,0.0
2026-05-10 20:54:03.570,803,-1.3331345,-2.7126453,0.9235474,0.0,0.0,0.0
2026-05-10 20:54:03.580,804,-1.3331345,-2.7126453,0.9235474,0.0,0.0,0.0
2026-05-10 20:54:03.590,805,-1.3331345,-2.7126453,0.9235474,0.0,0.0,0.0
2026-05-10 20:54:03.600,806,-1.3331345,-2.7126453,0.9235474,0.0,0.0,0.0
2026-05-10 20:54:03.610,807,-1.2535524333333334,-2.783042833333333,0.81929664,0.0,0.0,0.0
2026-05-10 20:54:03.620,808,-1.2137614,-2.8182416,0.76717126,0.0,0.0,0.0
2026-05-10 20:54:03.630,809,-1.2137614,-2.8182416,0.76717126,0.0,0.0,0.0
2026-05-10 20:54:03.640,810,-1.1749235,-2.8537157,0.7344495700000001,0.0,0.0,0.0
2026-05-10 20:54:03.650,811,-1.1749235,-2.8537157,0.7344495700000001,0.0,0.0,0.0
2026-05-10 20:54:03.660,812,-1.1749235,-2.8537157,0.7344495700000001,0.0,0.0,0.0
2026-05-10 20:54:03.670,813,-1.1749235,-2.8537157,0.7344495700000001,0.0,0.0,0.0
2026-05-10 20:54:03.680,814,-1.1749235,-2.8537157,0.7344495700000001,0.0,0.0,0.0
2026-05-10 20:54:03.690,815,-1.1749235,-2.8537157,0.7344495700000001,0.0,0.0,0.0
2026-05-10 20:54:03.700,816,-1.159159,-2.838904233333333,0.7140316133333333,0.0,0.0,0.0
2026-05-10 20:54:03.710,817,-1.12763,-2.8092813,0.6731957,0.0,0.0,0.0
2026-05-10 20:54:03.720,818,-1.12763,-2.8092813,0.6731957,0.0,0.0,0.0
2026-05-10 20:54:03.730,819,-1.12763,-2.8092813,0.6731957,0.0,0.0,0.0
2026-05-10 20:54:03.740,820,-1.12763,-2.8092813,0.6731957,0.0,0.0,0.0
2026-05-10 20:54:03.750,821,-1.12763,-2.8092813,0.6731957,0.0,0.0,0.0
2026-05-10 20:54:03.760,822,-1.12763,-2.8092813,0.6731957,0.0,0.0,0.0
2026-05-10 20:54:03.770,823,-1.12763,-2.8092813,0.6731957,0.0,0.0,0.0
2026-05-10 20:54:03.780,824,-1.12763,-2.8092813,0.6731957,0.0,0.0,0.0
2026-05-10 20:54:03.790,825,-1.12763,-2.8092813,0.6731957,0.0,0.0,0.0
2026-05-10 20:54:03.800,826,-1.0294648,-2.7277217,0.4925534999999999,0.0,0.0,0.0
2026-05-10 20:54:03.810,827,-1.0294648,-2.7277217,0.4925534999999999,0.0,0.0,0.0
2026-05-10 20:54:03.820,828,-1.0294648,-2.7277217,0.4925534999999999,0.0,0.0,0.0
2026-05-10 20:54:03.830,829,-1.0294648,-2.7277217,0.4925534999999999,0.0,0.0,0.0
2026-05-10 20:54:03.840,830,-1.0294648,-2.7277217,0.4925534999999999,0.0,0.0,0.0
2026-05-10 20:54:03.850,831,-1.0294648,-2.7277217,0.4925535,0.0,0.0,0.0
2026-05-10 20:54:03.860,832,-1.0294648,-2.7277217,0.4925534999999999,0.0,0.0,0.0
2026-05-10 20:54:03.870,833,-1.0294648,-2.7277217,0.4925534999999999,0.0,0.0,0.0
2026-05-10 20:54:03.880,834,-1.0294648,-2.7277217,0.4925534999999999,0.0,0.0,0.0
2026-05-10 20:54:03.890,835,-1.0294648,-2.7277217,0.4925534999999999,0.0,0.0,0.0
2026-05-10 20:54:03.900,836,-1.0294648,-2.7277217,0.4925534999999999,0.0,0.0,0.0
2026-05-10 20:54:03.910,837,-1.0294648,-2.7277217,0.4925534999999999,0.0,0.0,0.0
2026-05-10 20:54:03.920,838,-1.0294648,-2.7277217,0.4925535,0.0,0.0,0.0
2026-05-10 20:54:03.930,839,-1.0294648,-2.7277217,0.4925534999999999,0.0,0.0,0.0
2026-05-10 20:54:03.940,840,-1.0294648,-2.7277217,0.4925534999999999,0.0,0.0,0.0
2026-05-10 20:54:03.950,841,-1.0294648,-2.7277217,0.4925534999999999,0.0,0.0,0.0
2026-05-10 20:54:03.960,842,-1.0294648,-2.7277217,0.4925534999999999,0.0,0.0,0.0
2026-05-10 20:54:03.970,843,-1.0294648,-2.7277217,0.4925535,0.0,0.0,0.0
2026-05-10 20:54:03.980,844,-1.0294648,-2.7277217,0.4925534999999999,0.0,0.0,0.0
2026-05-10 20:54:03.990,845,-1.0294648,-2.7277217,0.4925535,0.0,0.0,0.0
2026-05-10 20:54:04.000,846,-1.0294648,-2.7277217,0.4925535,0.0,0.0,0.0
2026-05-10 20:54:04.010,847,-1.0294648,-2.7277217,0.4925535,0.0,0.0,0.0
2026-05-10 20:54:04.020,848,-1.0294648,-2.7277217,0.4925535,0.0,0.0,0.0
2026-05-10 20:54:04.030,849,-1.0294648,-2.7277217,0.4925535,0.0,0.0,0.0
2026-05-10 20:54:04.040,850,-1.0294648,-2.7277217,0.4925535,0.0,0.0,0.0
2026-05-10 20:54:04.050,851,-1.0294648,-2.7277217,0.4925535,0.0,0.0,0.0
2026-05-10 20:54:04.060,852,-1.0294648,-2.7277217,0.4925535,0.0,0.0,0.0
2026-05-10 20:54:04.070,853,-1.0294648,-2.7277217,0.4925535,0.0,0.0,0.0
2026-05-10 20:54:04.080,854,-1.0294648,-2.7277217,0.4925535,0.0,0.0,0.0
2026-05-10 20:54:04.090,855,-1.0294648,-2.7277217,0.4925535,0.0,0.0,0.0
2026-05-10 20:54:04.100,856,-1.0294648,-2.7277217,0.4925535,0.0,0.0,0.0
2026-05-10 20:54:04.110,857,-1.0294648,-2.7277217,0.4925535,0.0,0.0,0.0
2026-05-10 20:54:04.120,858,-1.0294648,-2.7277217,0.4925535,0.0,0.0,0.0
2026-05-10 20:54:04.130,859,-1.0294648,-2.7277217,0.4925535,0.0,0.0,0.0
2026-05-10 20:54:04.140,860,-1.0294648,-2.7277217,0.4925535,0.0,0.0,0.0
2026-05-10 20:54:04.150,861,-1.0294648,-2.7277217,0.4925535,0.0,0.0,0.0
2026-05-10 20:54:04.160,862,-1.0294648,-2.7277217,0.4925535,0.0,0.0,0.0
2026-05-10 20:54:04.170,863,-1.0294648,-2.7277217,0.4925535,0.0,0.0,0.0
2026-05-10 20:54:04.180,864,-1.0294648,-2.7277217,0.4925535,0.0,0.0,0.0
2026-05-10 20:54:04.190,865,-0.95171764,-2.700066233333333,0.49031090000000005,0.0,0.0,0.0
2026-05-10 20:54:04.200,866,-0.91284406,-2.6862385,0.4891896,0.0,0.0,0.0
2026-05-10 20:54:04.210,867,-0.8623190900000001,-2.6847094666666664,0.49048420000000004,0.0,0.0,0.0
2026-05-10 20:54:04.220,868,-0.76126915,-2.6816514,0.49307339999999994,0.0,0.0,0.0
2026-05-10 20:54:04.230,869,-0.76126915,-2.6816514,0.4930734,0.0,0.0,0.0
2026-05-10 20:54:04.240,870,-0.76126915,-2.6816514,0.4930734,0.0,0.0,0.0
2026-05-10 20:54:04.250,871,-0.76126915,-2.6816514,0.4930734,0.0,0.0,0.0
2026-05-10 20:54:04.260,872,-0.76126915,-2.6816514,0.4930734,0.0,0.0,0.0
2026-05-10 20:54:04.270,873,-0.76126915,-2.6816514,0.4930734,0.0,0.0,0.0
2026-05-10 20:54:04.280,874,-0.76126915,-2.6816514,0.4930734,0.0,0.0,0.0
2026-05-10 20:54:04.290,875,-0.76126915,-2.6816514,0.4930734,0.0,0.0,0.0
2026-05-10 20:54:04.300,876,-0.76126915,-2.6816514,0.4930734,0.0,0.0,0.0
2026-05-10 20:54:04.310,877,-0.76126915,-2.6816514,0.4930734,0.0,0.0,0.0
2026-05-10 20:54:04.320,878,-0.76126915,-2.6816514,0.4930734,0.0,0.0,0.0
2026-05-10 20:54:04.330,879,-0.76126915,-2.6816514,0.4930734,0.0,0.0,0.0
2026-05-10 20:54:04.340,880,-0.76126915,-2.6816514,0.4930734,0.0,0.0,0.0
2026-05-10 20:54:04.350,881,-0.76126915,-2.6816514,0.4930734,0.0,0.0,0.0
2026-05-10 20:54:04.360,882,-0.76126915,-2.6816514,0.4930734,0.0,0.0,0.0
2026-05-10 20:54:04.370,883,-0.76126915,-2.6816514,0.49307339999999994,0.0,0.0,0.0
2026-05-10 20:54:04.380,884,-0.76126915,-2.6816514,0.4930734,0.0,0.0,0.0
2026-05-10 20:54:04.390,885,-0.76126915,-2.6816514,0.4930734,0.0,0.0,0.0
2026-05-10 20:54:04.400,886,-0.76126915,-2.6816514,0.4930734,0.0,0.0,0.0
2026-05-10 20:54:04.410,887,-0.76126915,-2.6816514,0.4930734,0.0,0.0,0.0
2026-05-10 20:54:04.420,888,-0.76126915,-2.6816514,0.4930734,0.0,0.0,0.0
2026-05-10 20:54:04.430,889,-0.76126915,-2.6816514,0.4930734,0.0,0.0,0.0
2026-05-10 20:54:04.440,890,-0.76126915,-2.6816514,0.4930734,0.0,0.0,0.0
2026-05-10 20:54:04.450,891,-0.76126915,-2.6816514,0.49307339999999994,0.0,0.0,0.0
2026-05-10 20:54:04.460,892,-0.76126915,-2.6816514,0.4930734,0.0,0.0,0.0
2026-05-10 20:54:04.470,893,-0.76126915,-2.6816514,0.49307339999999994,0.0,0.0,0.0
2026-05-10 20:54:04.480,894,-0.76126915,-2.6816514,0.49307339999999994,0.0,0.0,0.0
2026-05-10 20:54:04.490,895,-0.76126915,-2.6816514,0.4930734,0.0,0.0,0.0
2026-05-10 20:54:04.500,896,-0.76126915,-2.6816514,0.49307339999999994,0.0,0.0,0.0
2026-05-10 20:54:04.510,897,-0.76126915,-2.6816514,0.49307339999999994,0.0,0.0,0.0
2026-05-10 20:54:04.520,898,-0.76126915,-2.6816514,0.4930734,0.0,0.0,0.0
2026-05-10 20:54:04.530,899,-0.76126915,-2.6816514,0.49307339999999994,0.0,0.0,0.0
2026-05-10 20:54:04.540,900,-0.76126915,-2.6816514,0.49307339999999994,0.0,0.0,0.0
2026-05-10 20:54:04.550,901,-0.76126915,-2.6816514,0.49307339999999994,0.0,0.0,0.0
2026-05-10 20:54:04.560,902,-0.76126915,-2.6816514,0.4930734,0.0,0.0,0.0
2026-05-10 20:54:04.570,903,-0.76126915,-2.6816514,0.49307339999999994,0.0,0.0,0.0
2026-05-10 20:54:04.580,904,-0.76126915,-2.6816514,0.49307339999999994,0.0,0.0,0.0
2026-05-10 20:54:04.590,905,-0.44720182,-2.4863455,0.4622783,0.0,0.0,0.0
2026-05-10 20:54:04.600,906,-0.44720182,-2.4863455,0.4622783,0.0,0.0,0.0
2026-05-10 20:54:04.610,907,-0.42361366,-2.432176366666667,0.4076401666666667,0.0,0.0,0.0
2026-05-10 20:54:04.620,908,-0.41181958,-2.4050918,0.3803211,0.0,0.0,0.0
2026-05-10 20:54:04.630,909,-0.39785933,-2.3149848,0.29827216,0.0,0.0,0.0
2026-05-10 20:54:04.640,910,-0.39785933,-2.3149848,0.29827216,0.0,0.0,0.0
2026-05-10 20:54:04.650,911,-0.39785933,-2.3149848,0.29827216,0.0,0.0,0.0
2026-05-10 20:54:04.660,912,-0.39785933,-2.3149848,0.29827216,0.0,0.0,0.0
2026-05-10 20:54:04.670,913,-0.39785933,-2.3149848,0.29827216,0.0,0.0,0.0
2026-05-10 20:54:04.680,914,-0.39785933,-2.3149848,0.29827216,0.0,0.0,0.0
2026-05-10 20:54:04.690,915,-0.35249236,-2.2566822,0.22282875,0.0,0.0,0.0
2026-05-10 20:54:04.700,916,-0.35249236,-2.2566822,0.22282875,0.0,0.0,0.0
2026-05-10 20:54:04.710,917,-0.35249236,-2.2566822,0.22282875,0.0,0.0,0.0
2026-05-10 20:54:04.720,918,-0.35249236,-2.2566822,0.22282875,0.0,0.0,0.0
2026-05-10 20:54:04.730,919,-0.019571865,-2.2164066,0.083792046,0.0,0.0,0.0
2026-05-10 20:54:04.740,920,-0.019571865,-2.2164066,0.083792046,0.0,0.0,0.0
2026-05-10 20:54:04.750,921,-0.019571865,-2.2164066,0.083792046,0.0,0.0,0.0
2026-05-10 20:54:04.760,922,0.11362894500000002,-2.2214423333333335,0.03152905106666667,0.0,0.0,0.0
2026-05-10 20:54:04.770,923,0.18022934999999998,-2.2239602,0.0053975536,0.0,0.0,0.0
2026-05-10 20:54:04.780,924,0.18022934999999998,-2.2239602,0.0053975536,0.0,0.0,0.0
2026-05-10 20:54:04.790,925,0.18022934999999998,-2.2239602,0.0053975536,0.0,0.0,0.0
2026-05-10 20:54:04.800,926,0.18022934999999998,-2.2239602,0.0053975536,0.0,0.0,0.0
2026-05-10 20:54:04.810,927,0.18022934999999998,-2.2239602,0.0053975536,0.0,0.0,0.0
2026-05-10 20:54:04.820,928,0.7242660500000001,-2.1905198,-0.12405199,0.0,0.0,0.0
2026-05-10 20:54:04.830,929,0.7242660500000001,-2.1905198,-0.12405199,0.0,0.0,0.0
2026-05-10 20:54:04.840,930,0.7242660500000001,-2.1905198,-0.12405199,0.0,0.0,0.0
2026-05-10 20:54:04.850,931,0.7242660500000001,-2.1905198,-0.12405199,0.0,0.0,0.0
2026-05-10 20:54:04.860,932,0.72426605,-2.1905198,-0.12405199,0.0,0.0,0.0
2026-05-10 20:54:04.870,933,0.7242660500000001,-2.1905198,-0.12405199,0.0,0.0,0.0
2026-05-10 20:54:04.880,934,0.72426605,-2.1905198,-0.12405199,0.0,0.0,0.0
2026-05-10 20:54:04.890,935,0.72426605,-2.1905198,-0.12405199,0.0,0.0,0.0
2026-05-10 20:54:04.900,936,0.7242660500000001,-2.1905198,-0.12405199,0.0,0.0,0.0
2026-05-10 20:54:04.910,937,0.72426605,-2.1905198,-0.12405199,0.0,0.0,0.0
2026-05-10 20:54:04.920,938,0.7242660500000001,-2.1905198,-0.12405199,0.0,0.0,0.0
2026-05-10 20:54:04.930,939,0.72426605,-2.1905198,-0.12405199,0.0,0.0,0.0
2026-05-10 20:54:04.940,940,0.7242660500000001,-2.1905198,-0.12405199,0.0,0.0,0.0
2026-05-10 20:54:04.950,941,0.9973548,-2.0697248,-0.22293578,0.0,0.0,0.0
2026-05-10 20:54:04.960,942,0.9973548,-2.0697248,-0.22293578,0.0,0.0,0.0
2026-05-10 20:54:04.970,943,0.9973548,-2.0697248,-0.22293578,0.0,0.0,0.0
2026-05-10 20:54:04.980,944,0.9973548,-2.0697248,-0.22293578,0.0,0.0,0.0
2026-05-10 20:54:04.990,945,0.9973548,-2.0697248,-0.22293578,0.0,0.0,0.0
2026-05-10 20:54:05.000,946,0.9973548,-2.0697248,-0.22293578,0.0,0.0,0.0
2026-05-10 20:54:05.010,947,0.9973548,-2.0697248,-0.22293578,0.0,0.0,0.0
2026-05-10 20:54:05.020,948,0.9973548,-2.0697248,-0.22293578,0.0,0.0,0.0
2026-05-10 20:54:05.030,949,0.9973548,-2.0697248,-0.22293578,0.0,0.0,0.0
2026-05-10 20:54:05.040,950,0.9973548,-2.0697248,-0.22293578,0.0,0.0,0.0
2026-05-10 20:54:05.050,951,0.9973548,-2.0697248,-0.22293578,0.0,0.0,0.0
2026-05-10 20:54:05.060,952,0.9973548,-2.0697248,-0.22293578,0.0,0.0,0.0
2026-05-10 20:54:05.070,953,0.9973548,-2.0697248,-0.22293578,0.0,0.0,0.0
2026-05-10 20:54:05.080,954,0.9973548,-2.0697248,-0.22293578,0.0,0.0,0.0
2026-05-10 20:54:05.090,955,0.9973548,-2.0697248,-0.22293578,0.0,0.0,0.0
2026-05-10 20:54:05.100,956,0.9973548,-2.0697248,-0.22293578,0.0,0.0,0.0
2026-05-10 20:54:05.110,957,1.9326248999999998,-1.9221559666666668,-0.13717125333333333,0.0,0.0,0.0
2026-05-10 20:54:05.120,958,1.7735015,-1.9174312,-0.15188073,0.0,0.0,0.0
2026-05-10 20:54:05.130,959,1.7735015,-1.9174312,-0.15188073,0.0,0.0,0.0
2026-05-10 20:54:05.140,960,1.7735015,-1.9174312,-0.15188073,0.0,0.0,0.0
2026-05-10 20:54:05.150,961,2.6198778,-1.8183486,-0.2573853,0.0,0.0,0.0
2026-05-10 20:54:05.160,962,2.6198778,-1.8183486,-0.2573853,0.0,0.0,0.0
2026-05-10 20:54:05.170,963,2.6198778,-1.8183486,-0.2573853,0.0,0.0,0.0
2026-05-10 20:54:05.180,964,2.6198778,-1.8183486,-0.2573853,0.0,0.0,0.0
2026-05-10 20:54:05.190,965,2.6198778,-1.8183486,-0.2573853,0.0,0.0,0.0
2026-05-10 20:54:05.200,966,2.6198778,-1.8183486,-0.2573853,0.0,0.0,0.0
2026-05-10 20:54:05.210,967,2.6198778,-1.8183486,-0.2573853,0.0,0.0,0.0
2026-05-10 20:54:05.220,968,2.6198778,-1.8183486,-0.2573853,0.0,0.0,0.0
2026-05-10 20:54:05.230,969,2.6198778,-1.8183486,-0.2573853,0.0,0.0,0.0
2026-05-10 20:54:05.240,970,2.6198778,-1.8183486,-0.2573853,0.0,0.0,0.0
2026-05-10 20:54:05.250,971,2.6198778,-1.8183486,-0.2573853,0.0,0.0,0.0
2026-05-10 20:54:05.260,972,2.6198778,-1.8183486,-0.2573853,0.0,0.0,0.0
2026-05-10 20:54:05.270,973,2.6198778,-1.8183486,-0.2573853,0.0,0.0,0.0
2026-05-10 20:54:05.280,974,2.6198778,-1.8183486,-0.2573853,0.0,0.0,0.0
2026-05-10 20:54:05.290,975,2.6198778,-1.8183486,-0.2573853,0.0,0.0,0.0
2026-05-10 20:54:05.300,976,2.6198778,-1.8183486,-0.2573853,0.0,0.0,0.0
2026-05-10 20:54:05.310,977,2.6198778,-1.8183486,-0.2573853,0.0,0.0,0.0
2026-05-10 20:54:05.320,978,2.6198778,-1.8183486,-0.2573853,0.0,0.0,0.0
2026-05-10 20:54:05.330,979,2.6198778,-1.8183486,-0.2573853,0.0,0.0,0.0
2026-05-10 20:54:05.340,980,2.6198778,-1.8183486,-0.2573853,0.0,0.0,0.0
2026-05-10 20:54:05.350,981,2.6198778,-1.8183486,-0.2573853,0.0,0.0,0.0
2026-05-10 20:54:05.360,982,2.6198778,-1.8183486,-0.2573853,0.0,0.0,0.0
2026-05-10 20:54:05.370,983,2.6198778,-1.8183486,-0.2573853,0.0,0.0,0.0
2026-05-10 20:54:05.380,984,2.6198778,-1.8183486,-0.2573853,0.0,0.0,0.0
2026-05-10 20:54:05.390,985,2.6198778,-1.8183486,-0.2573853,0.0,0.0,0.0
2026-05-10 20:54:05.400,986,2.6198778,-1.8183486,-0.2573853,0.0,0.0,0.0
2026-05-10 20:54:05.410,987,2.6198778,-1.8183486,-0.2573853,0.0,0.0,0.0
2026-05-10 20:54:05.420,988,2.6198778,-1.8183486,-0.2573853,0.0,0.0,0.0
2026-05-10 20:54:05.430,989,2.6198778,-1.8183486,-0.2573853,0.0,0.0,0.0
2026-05-10 20:54:05.440,990,2.6198778,-1.8183486,-0.2573853,0.0,0.0,0.0
2026-05-10 20:54:05.450,991,2.6198778,-1.8183486,-0.2573853,0.0,0.0,0.0
2026-05-10 20:54:05.460,992,2.6198778,-1.8183486,-0.2573853,0.0,0.0,0.0
2026-05-10 20:54:05.470,993,2.6198778,-1.8183486,-0.2573853,0.0,0.0,0.0
2026-05-10 20:54:05.480,994,2.6198778,-1.8183486,-0.2573853,0.0,0.0,0.0
2026-05-10 20:54:05.490,995,2.6198778,-1.8183486,-0.2573853,0.0,0.0,0.0
2026-05-10 20:54:05.500,996,2.6198778,-1.8183486,-0.2573853,0.0,0.0,0.0
2026-05-10 20:54:05.510,997,2.6198778,-1.8183486,-0.2573853,0.0,0.0,0.0
2026-05-10 20:54:05.520,998,2.6198778,-1.8183486,-0.2573853,0.0,0.0,0.0
2026-05-10 20:54:05.530,999,2.6198778,-1.8183486,-0.2573853,0.0,0.0,0.0
2026-05-10 20:54:05.540,1000,2.6198778,-1.8183486,-0.2573853,0.0,0.0,0.0
