timestamp,id,acc_x,acc_y,acc_z,gyro_x,gyro_y,gyro_z
2026-05-10 20:54:57.660,1,-0.2524006,0.52844036,0.6668654,0.0,0.0,0.0
2026-05-10 20:54:57.670,2,-0.294495415,0.52344798,0.6654892800000001,0.0,0.0,0.0
2026-05-10 20:54:57.680,3,-0.33659023,0.5184556,0.66411316,0.0,0.0,0.0
2026-05-10 20:54:57.690,4,-0.33659023,0.5184556,0.66411316,0.0,0.0,0.0
2026-05-10 20:54:57.700,5,-0.33659023,0.5184556,0.66411316,0.0,0.0,0.0
2026-05-10 20:54:57.710,6,-0.37879204499999997,0.51590212,0.6796101,0.0,0.0,0.0
2026-05-10 20:54:57.720,7,-0.42099386,0.51334864,0.69510704,0.0,0.0,0.0
2026-05-10 20:54:57.730,8,-0.42099386,0.51334864,0.69510704,0.0,0.0,0.0
2026-05-10 20:54:57.740,9,-0.42099386,0.51334864,0.69510704,0.0,0.0,0.0
2026-05-10 20:54:57.750,10,-0.42099386,0.51334864,0.69510704,0.0,0.0,0.0
2026-05-10 20:54:57.760,11,-0.42099386,0.51334864,0.69510704,0.0,0.0,0.0
2026-05-10 20:54:57.770,12,-0.42099386,0.51334864,0.69510704,0.0,0.0,0.0
2026-05-10 20:54:57.780,13,-0.42099386,0.51334864,0.69510704,0.0,0.0,0.0
2026-05-10 20:54:57.790,14,-0.5067635133333334,0.51219672,0.77958208,0.0,0.0,0.0
2026-05-10 20:54:57.800,15,-0.54964834,0.51162076,0.8218196,0.0,0.0,0.0
2026-05-10 20:54:57.810,16,-0.5511774,0.5160092,0.95290524,0.0,0.0,0.0
2026-05-10 20:54:57.820,17,-0.5511774,0.5160092,0.9529052400000001,0.0,0.0,0.0
2026-05-10 20:54:57.830,18,-0.5511774,0.5160092,0.9529052400000001,0.0,0.0,0.0
2026-05-10 20:54:57.840,19,-0.5511774,0.5160092,0.9529052400000001,0.0,0.0,0.0
2026-05-10 20:54:57.850,20,-0.5511774,0.5160092,0.95290524,0.0,0.0,0.0
2026-05-10 20:54:57.860,21,-0.4787003,0.50998473,0.916315,0.0,0.0,0.0
2026-05-10 20:54:57.870,22,-0.4787003,0.50998473,0.916315,0.0,0.0,0.0
2026-05-10 20:54:57.880,23,-0.4787003,0.50998473,0.916315,0.0,0.0,0.0
2026-05-10 20:54:57.890,24,-0.4787003,0.50998473,0.916315,0.0,0.0,0.0
2026-05-10 20:54:57.900,25,-0.4787003,0.50998473,0.916315,0.0,0.0,0.0
2026-05-10 20:54:57.910,26,-0.4787003,0.50998473,0.916315,0.0,0.0,0.0
2026-05-10 20:54:57.920,27,-0.4787003,0.50998473,0.916315,0.0,0.0,0.0
2026-05-10 20:54:57.930,28,-0.4787003,0.50998473,0.916315,0.0,0.0,0.0
2026-05-10 20:54:57.940,29,-0.4787003,0.50998473,0.916315,0.0,0.0,0.0
2026-05-10 20:54:57.950,30,-0.4787003,0.50998473,0.916315,0.0,0.0,0.0
2026-05-10 20:54:57.960,31,-0.4787003,0.50998473,0.916315,0.0,0.0,0.0
2026-05-10 20:54:57.970,32,-0.4787003,0.50998473,0.916315,0.0,0.0,0.0
2026-05-10 20:54:57.980,33,-0.4787003,0.50998473,0.916315,0.0,0.0,0.0
2026-05-10 20:54:57.990,34,-0.4787003,0.50998473,0.916315,0.0,0.0,0.0
2026-05-10 20:54:58.000,35,-0.4787003,0.50998473,0.916315,0.0,0.0,0.0
2026-05-10 20:54:58.010,36,-0.43619270000000004,0.49285936,0.8799236,0.0,0.0,0.0
2026-05-10 20:54:58.020,37,-0.43619270000000004,0.49285936,0.8799236,0.0,0.0,0.0
2026-05-10 20:54:58.030,38,-0.4021407,0.47624620500000003,0.81865445,0.0,0.0,0.0
2026-05-10 20:54:58.040,39,-0.33047401,0.46049695999999996,0.6896483,0.0,0.0,0.0
2026-05-10 20:54:58.050,40,-0.29285932,0.46136087,0.6219113,0.0,0.0,0.0
2026-05-10 20:54:58.060,41,-0.29285932,0.46136087,0.6219113,0.0,0.0,0.0
2026-05-10 20:54:58.070,42,-0.29285932,0.46136087,0.6219113,0.0,0.0,0.0
2026-05-10 20:54:58.080,43,-0.29285932,0.46136087,0.6219113,0.0,0.0,0.0
2026-05-10 20:54:58.090,44,-0.29285932,0.46136087,0.6219113,0.0,0.0,0.0
2026-05-10 20:54:58.100,45,-0.29285932,0.46136087,0.6219113,0.0,0.0,0.0
2026-05-10 20:54:58.110,46,-0.2743781733333333,0.45585626333333334,0.5343883866666667,0.0,0.0,0.0
2026-05-10 20:54:58.120,47,-0.2651376,0.45310396,0.49062693000000007,0.0,0.0,0.0
2026-05-10 20:54:58.130,48,-0.2651376,0.45310396,0.49062693,0.0,0.0,0.0
2026-05-10 20:54:58.140,49,-0.2651376,0.45310396,0.49062693000000007,0.0,0.0,0.0
2026-05-10 20:54:58.150,50,-0.2651376,0.45310396,0.49062693000000007,0.0,0.0,0.0
2026-05-10 20:54:58.160,51,-0.2651376,0.45310396,0.49062693000000007,0.0,0.0,0.0
2026-05-10 20:54:58.170,52,-0.2651376,0.45310396,0.49062693000000007,0.0,0.0,0.0
2026-05-10 20:54:58.180,53,-0.2651376,0.45310396,0.49062693000000007,0.0,0.0,0.0
2026-05-10 20:54:58.190,54,-0.4029511,0.4135627,0.59561163,0.0,0.0,0.0
2026-05-10 20:54:58.200,55,-0.40295109999999995,0.4135627,0.59561163,0.0,0.0,0.0
2026-05-10 20:54:58.210,56,-0.40295109999999995,0.4135627,0.59561163,0.0,0.0,0.0
2026-05-10 20:54:58.220,57,-0.40295109999999995,0.4135627,0.59561163,0.0,0.0,0.0
2026-05-10 20:54:58.230,58,-0.4285066333333334,0.3912691,0.6173649433333334,0.0,0.0,0.0
2026-05-10 20:54:58.240,59,-0.4412844,0.3801223,0.6282416,0.0,0.0,0.0
2026-05-10 20:54:58.250,60,-0.4412844,0.3801223,0.6282416,0.0,0.0,0.0
2026-05-10 20:54:58.260,61,-0.4412844,0.3801223,0.6282416,0.0,0.0,0.0
2026-05-10 20:54:58.270,62,-0.4412844,0.3801223,0.6282416,0.0,0.0,0.0
2026-05-10 20:54:58.280,63,-0.4412844,0.3801223,0.6282416,0.0,0.0,0.0
2026-05-10 20:54:58.290,64,-0.4412844,0.3801223,0.6282416,0.0,0.0,0.0
2026-05-10 20:54:58.300,65,-0.4412844,0.3801223,0.6282416,0.0,0.0,0.0
2026-05-10 20:54:58.310,66,-0.5653109066666667,0.36755351333333336,0.641422,0.0,0.0,0.0
2026-05-10 20:54:58.320,67,-0.62732416,0.36126912,0.6480122,0.0,0.0,0.0
2026-05-10 20:54:58.330,68,-0.62732416,0.36126912,0.6480122,0.0,0.0,0.0
2026-05-10 20:54:58.340,69,-0.62732416,0.36126912,0.6480122,0.0,0.0,0.0
2026-05-10 20:54:58.350,70,-0.62732416,0.36126912,0.6480122,0.0,0.0,0.0
2026-05-10 20:54:58.360,71,-0.6756422,0.3664679,0.65974003,0.0,0.0,0.0
2026-05-10 20:54:58.370,72,-0.6756422,0.3664679,0.65974003,0.0,0.0,0.0
2026-05-10 20:54:58.380,73,-0.6756422,0.3664679,0.65974003,0.0,0.0,0.0
2026-05-10 20:54:58.390,74,-0.6756422,0.3664679,0.65974003,0.0,0.0,0.0
2026-05-10 20:54:58.400,75,-0.6756422,0.3664679,0.65974003,0.0,0.0,0.0
2026-05-10 20:54:58.410,76,-0.6756422,0.3664679,0.65974003,0.0,0.0,0.0
2026-05-10 20:54:58.420,77,-0.6756422,0.3664679,0.65974003,0.0,0.0,0.0
2026-05-10 20:54:58.430,78,-0.6756422,0.3664679,0.65974003,0.0,0.0,0.0
2026-05-10 20:54:58.440,79,-0.6840622,0.3747553666666667,0.6838583433333333,0.0,0.0,0.0
2026-05-10 20:54:58.450,80,-0.6882722,0.3788991,0.6959175,0.0,0.0,0.0
2026-05-10 20:54:58.460,81,-0.6882722,0.3788991,0.6959174999999999,0.0,0.0,0.0
2026-05-10 20:54:58.470,82,-0.673134575,0.38318043999999996,0.7134556999999999,0.0,0.0,0.0
2026-05-10 20:54:58.480,83,-0.65799695,0.38746178,0.7309939,0.0,0.0,0.0
2026-05-10 20:54:58.490,84,-0.65799695,0.38746178,0.7309939,0.0,0.0,0.0
2026-05-10 20:54:58.500,85,-0.65799695,0.38746178,0.7309939,0.0,0.0,0.0
2026-05-10 20:54:58.510,86,-0.65799695,0.38746178,0.7309939,0.0,0.0,0.0
2026-05-10 20:54:58.520,87,-0.65799695,0.38746178,0.7309939,0.0,0.0,0.0
2026-05-10 20:54:58.530,88,-0.65799695,0.38746178,0.7309939,0.0,0.0,0.0
2026-05-10 20:54:58.540,89,-0.65799695,0.38746178,0.7309939,0.0,0.0,0.0
2026-05-10 20:54:58.550,90,-0.65799695,0.38746178,0.7309939,0.0,0.0,0.0
2026-05-10 20:54:58.560,91,-0.65799695,0.38746178,0.7309939,0.0,0.0,0.0
2026-05-10 20:54:58.570,92,-0.65799695,0.38746178,0.7309939,0.0,0.0,0.0
2026-05-10 20:54:58.580,93,-0.65799695,0.38746178,0.7309939,0.0,0.0,0.0
2026-05-10 20:54:58.590,94,-0.65799695,0.38746178,0.7309939,0.0,0.0,0.0
2026-05-10 20:54:58.600,95,-0.6129740375,0.3830237075,0.73466365,0.0,0.0,0.0
2026-05-10 20:54:58.610,96,-0.5979664,0.38154435,0.7358869,0.0,0.0,0.0
2026-05-10 20:54:58.620,97,-0.5979664,0.38154435,0.7358869,0.0,0.0,0.0
2026-05-10 20:54:58.630,98,-0.5979664,0.38154435,0.7358869,0.0,0.0,0.0
2026-05-10 20:54:58.640,99,-0.5979664,0.38154435,0.7358869,0.0,0.0,0.0
2026-05-10 20:54:58.650,100,-0.524419,0.3477523,0.73420493,0.0,0.0,0.0
2026-05-10 20:54:58.660,101,-0.4508716,0.31396025,0.73252296,0.0,0.0,0.0
2026-05-10 20:54:58.670,102,-0.42849391000000003,0.311261475,0.70188841,0.0,0.0,0.0
2026-05-10 20:54:58.680,103,-0.40611622,0.3085627,0.67125386,0.0,0.0,0.0
2026-05-10 20:54:58.690,104,-0.213226305,0.08649465,0.4868234225,0.0,0.0,0.0
2026-05-10 20:54:58.700,105,-0.020336389999999982,-0.1355734,0.302392985,0.0,0.0,0.0
2026-05-10 20:54:58.710,106,0.17255352500000004,-0.35764145,0.11796254750000001,0.0,0.0,0.0
2026-05-10 20:54:58.720,107,0.36544344,-0.5797095,-0.06646789,0.0,0.0,0.0
2026-05-10 20:54:58.730,108,0.36544344,-0.5797095,-0.06646789,0.0,0.0,0.0
2026-05-10 20:54:58.740,109,0.36544344,-0.5797095,-0.06646789,0.0,0.0,0.0
2026-05-10 20:54:58.750,110,0.36544344,-0.5797095,-0.06646789,0.0,0.0,0.0
2026-05-10 20:54:58.760,111,0.36544344,-0.5797095,-0.06646789,0.0,0.0,0.0
2026-05-10 20:54:58.770,112,0.36544344,-0.5797095,-0.06646789,0.0,0.0,0.0
2026-05-10 20:54:58.780,113,0.36544344,-0.5797095,-0.06646789,0.0,0.0,0.0
2026-05-10 20:54:58.790,114,0.36544344,-0.5797095,-0.06646789,0.0,0.0,0.0
2026-05-10 20:54:58.800,115,0.36544344,-0.5797095,-0.06646789,0.0,0.0,0.0
2026-05-10 20:54:58.810,116,0.36544344,-0.5797095,-0.06646789,0.0,0.0,0.0
2026-05-10 20:54:58.820,117,0.36544344,-0.5797095,-0.06646789,0.0,0.0,0.0
2026-05-10 20:54:58.830,118,0.36544344,-0.5797095,-0.06646789,0.0,0.0,0.0
2026-05-10 20:54:58.840,119,0.39106525000000003,-0.5889857333333334,-0.09079510666666668,0.0,0.0,0.0
2026-05-10 20:54:58.850,120,0.44230887,-0.6075382,-0.13944954,0.0,0.0,0.0
2026-05-10 20:54:58.860,121,0.44230887,-0.6075382,-0.13944954,0.0,0.0,0.0
2026-05-10 20:54:58.870,122,0.44230887,-0.6075382,-0.13944954,0.0,0.0,0.0
2026-05-10 20:54:58.880,123,0.44230887,-0.6075382,-0.13944954,0.0,0.0,0.0
2026-05-10 20:54:58.890,124,0.44230887,-0.6075382,-0.13944954,0.0,0.0,0.0
2026-05-10 20:54:58.900,125,0.44230887,-0.6075382,-0.13944954,0.0,0.0,0.0
2026-05-10 20:54:58.910,126,0.44230887,-0.6075382,-0.13944954,0.0,0.0,0.0
2026-05-10 20:54:58.920,127,0.44230887,-0.6075382,-0.13944954,0.0,0.0,0.0
2026-05-10 20:54:58.930,128,0.44230887,-0.6075382,-0.13944954,0.0,0.0,0.0
2026-05-10 20:54:58.940,129,0.55803769,-0.5966004,-0.16676860000000002,0.0,0.0,0.0
2026-05-10 20:54:58.950,130,0.6159021,-0.5911315,-0.18042813,0.0,0.0,0.0
2026-05-10 20:54:58.960,131,0.6159021,-0.5911315,-0.18042813,0.0,0.0,0.0
2026-05-10 20:54:58.970,132,0.6159021,-0.5911315,-0.18042813,0.0,0.0,0.0
2026-05-10 20:54:58.980,133,0.6159021,-0.5911315,-0.18042813,0.0,0.0,0.0
2026-05-10 20:54:58.990,134,0.6159021,-0.5911315,-0.18042813,0.0,0.0,0.0
2026-05-10 20:54:59.000,135,0.6159021,-0.5911315,-0.18042813,0.0,0.0,0.0
2026-05-10 20:54:59.010,136,0.6159021,-0.5911315,-0.18042813,0.0,0.0,0.0
2026-05-10 20:54:59.020,137,0.6159021,-0.5911315,-0.18042813,0.0,0.0,0.0
2026-05-10 20:54:59.030,138,0.6159021,-0.5911315,-0.18042813,0.0,0.0,0.0
2026-05-10 20:54:59.040,139,0.6159021,-0.5911315,-0.18042813,0.0,0.0,0.0
2026-05-10 20:54:59.050,140,0.6159021,-0.5911315,-0.18042813,0.0,0.0,0.0
2026-05-10 20:54:59.060,141,0.6159021,-0.5911315,-0.18042813,0.0,0.0,0.0
2026-05-10 20:54:59.070,142,0.6159021,-0.5911315,-0.18042813,0.0,0.0,0.0
2026-05-10 20:54:59.080,143,0.6159021,-0.5911315,-0.18042813,0.0,0.0,0.0
2026-05-10 20:54:59.090,144,0.6159021,-0.5911315,-0.18042813,0.0,0.0,0.0
2026-05-10 20:54:59.100,145,0.6159021,-0.5911315,-0.18042813,0.0,0.0,0.0
2026-05-10 20:54:59.110,146,0.6159021,-0.5911315,-0.18042813,0.0,0.0,0.0
2026-05-10 20:54:59.120,147,0.6159021,-0.5911315,-0.18042813,0.0,0.0,0.0
2026-05-10 20:54:59.130,148,0.6159021,-0.5911315,-0.18042813,0.0,0.0,0.0
2026-05-10 20:54:59.140,149,0.6821597625,-0.5809633000000001,-0.20881880249999998,0.0,0.0,0.0
2026-05-10 20:54:59.150,150,0.88093275,-0.5504587,-0.29399082,0.0,0.0,0.0
2026-05-10 20:54:59.160,151,0.88093275,-0.5504587,-0.29399082,0.0,0.0,0.0
2026-05-10 20:54:59.170,152,0.9439297,-0.5469878,-0.4916361,0.0,0.0,0.0
2026-05-10 20:54:59.180,153,0.9439297,-0.5469878,-0.4916361,0.0,0.0,0.0
2026-05-10 20:54:59.190,154,0.9439297,-0.5469878,-0.4916361,0.0,0.0,0.0
2026-05-10 20:54:59.200,155,0.9439297,-0.5469878,-0.4916361,0.0,0.0,0.0
2026-05-10 20:54:59.210,156,0.9439297,-0.5469878,-0.4916361,0.0,0.0,0.0
2026-05-10 20:54:59.220,157,0.9439297,-0.5469878,-0.4916361,0.0,0.0,0.0
2026-05-10 20:54:59.230,158,0.9439297,-0.5469878,-0.4916361,0.0,0.0,0.0
2026-05-10 20:54:59.240,159,0.9439297,-0.5469878,-0.4916361,0.0,0.0,0.0
2026-05-10 20:54:59.250,160,0.9439297,-0.5469878,-0.4916361,0.0,0.0,0.0
2026-05-10 20:54:59.260,161,1.0818858333333334,-0.50013761,-0.82649845,0.0,0.0,0.0
2026-05-10 20:54:59.270,162,1.1118196,-0.44862384,-0.8870489,0.0,0.0,0.0
2026-05-10 20:54:59.280,163,1.1118196,-0.44862384,-0.8870489,0.0,0.0,0.0
2026-05-10 20:54:59.290,164,1.1118196,-0.44862384,-0.8870489,0.0,0.0,0.0
2026-05-10 20:54:59.300,165,1.1118196,-0.44862384,-0.8870489,0.0,0.0,0.0
2026-05-10 20:54:59.310,166,1.1118196,-0.44862384,-0.8870489,0.0,0.0,0.0
2026-05-10 20:54:59.320,167,1.1118196,-0.44862384,-0.8870489,0.0,0.0,0.0
2026-05-10 20:54:59.330,168,1.1118196,-0.44862384,-0.8870489,0.0,0.0,0.0
2026-05-10 20:54:59.340,169,1.1335321333333332,-0.44617736,-0.8898012,0.0,0.0,0.0
2026-05-10 20:54:59.350,170,1.1769572,-0.4412844,-0.8953058,0.0,0.0,0.0
2026-05-10 20:54:59.360,171,1.1769572,-0.4412844,-0.8953058,0.0,0.0,0.0
2026-05-10 20:54:59.370,172,1.1769572,-0.4412844,-0.8953058,0.0,0.0,0.0
2026-05-10 20:54:59.380,173,1.1769572,-0.4412844,-0.8953058,0.0,0.0,0.0
2026-05-10 20:54:59.390,174,1.3247044000000001,-0.34464831333333334,-0.9031243999999999,0.0,0.0,0.0
2026-05-10 20:54:59.400,175,1.3985779999999999,-0.29633027,-0.9070337,0.0,0.0,0.0
2026-05-10 20:54:59.410,176,1.398578,-0.29633027,-0.9070337,0.0,0.0,0.0
2026-05-10 20:54:59.420,177,1.4220234666666667,-0.24869521666666664,-0.9830071,0.0,0.0,0.0
2026-05-10 20:54:59.430,178,1.4337462,-0.22487769,-1.0209938,0.0,0.0,0.0
2026-05-10 20:54:59.440,179,1.4337462,-0.22487769,-1.0209938,0.0,0.0,0.0
2026-05-10 20:54:59.450,180,1.4337462,-0.22487769,-1.0209938,0.0,0.0,0.0
2026-05-10 20:54:59.460,181,1.4337462,-0.22487769,-1.0209938,0.0,0.0,0.0
2026-05-10 20:54:59.470,182,1.4337462,-0.22487769,-1.0209938,0.0,0.0,0.0
2026-05-10 20:54:59.480,183,1.4337462,-0.22487769,-1.0209938,0.0,0.0,0.0
2026-05-10 20:54:59.490,184,1.4337462,-0.22487769,-1.0209938,0.0,0.0,0.0
2026-05-10 20:54:59.500,185,1.4337462,-0.22487769,-1.0209938,0.0,0.0,0.0
2026-05-10 20:54:59.510,186,1.4337462,-0.22487769,-1.0209938,0.0,0.0,0.0
2026-05-10 20:54:59.520,187,1.4337462,-0.22487769,-1.0209938,0.0,0.0,0.0
2026-05-10 20:54:59.530,188,1.4337462,-0.22487769,-1.0209938,0.0,0.0,0.0
2026-05-10 20:54:59.540,189,1.430581,-0.19093272,-1.1081499,0.0,0.0,0.0
2026-05-10 20:54:59.550,190,1.430581,-0.19093272000000003,-1.1081499,0.0,0.0,0.0
2026-05-10 20:54:59.560,191,1.430581,-0.19093272,-1.1081499,0.0,0.0,0.0
2026-05-10 20:54:59.570,192,1.430581,-0.19093272000000003,-1.1081499,0.0,0.0,0.0
2026-05-10 20:54:59.580,193,1.430581,-0.19093272000000003,-1.1081499,0.0,0.0,0.0
2026-05-10 20:54:59.590,194,1.4652447000000002,-0.17359328,-1.153104,0.0,0.0,0.0
2026-05-10 20:54:59.600,195,1.4652447,-0.17359328,-1.153104,0.0,0.0,0.0
2026-05-10 20:54:59.610,196,1.4937768,-0.12160549999999999,-1.1853211,0.0,0.0,0.0
2026-05-10 20:54:59.620,197,1.4937768,-0.1216055,-1.1853211,0.0,0.0,0.0
2026-05-10 20:54:59.630,198,1.4937768,-0.12160549999999999,-1.1853211,0.0,0.0,0.0
2026-05-10 20:54:59.640,199,1.4937768,-0.1216055,-1.1853211,0.0,0.0,0.0
2026-05-10 20:54:59.650,200,1.4937768,-0.12160549999999999,-1.1853211,0.0,0.0,0.0
2026-05-10 20:54:59.660,201,1.4431549333333333,-0.07458206,-1.1799490333333333,0.0,0.0,0.0
2026-05-10 20:54:59.670,202,1.417844,-0.05107034,-1.177263,0.0,0.0,0.0
2026-05-10 20:54:59.680,203,1.4178439999999999,-0.05107034,-1.177263,0.0,0.0,0.0
2026-05-10 20:54:59.690,204,1.4178439999999999,-0.05107034,-1.177263,0.0,0.0,0.0
2026-05-10 20:54:59.700,205,1.304893,-0.011314985,-1.1420949,0.0,0.0,0.0
2026-05-10 20:54:59.710,206,1.304893,-0.011314985,-1.1420949,0.0,0.0,0.0
2026-05-10 20:54:59.720,207,1.304893,-0.011314985,-1.1420949,0.0,0.0,0.0
2026-05-10 20:54:59.730,208,1.304893,-0.011314985,-1.1420949,0.0,0.0,0.0
2026-05-10 20:54:59.740,209,1.304893,-0.011314985,-1.1420949,0.0,0.0,0.0
2026-05-10 20:54:59.750,210,1.304893,-0.011314985,-1.1420949,0.0,0.0,0.0
2026-05-10 20:54:59.760,211,1.304893,-0.011314985,-1.1420949,0.0,0.0,0.0
2026-05-10 20:54:59.770,212,1.304893,-0.011314985,-1.1420949,0.0,0.0,0.0
2026-05-10 20:54:59.780,213,1.2885474333333333,-0.006625892133333333,-1.1389042666666667,0.0,0.0,0.0
2026-05-10 20:54:59.790,214,1.2558563,0.0027522936,-1.132523,0.0,0.0,0.0
2026-05-10 20:54:59.800,215,1.3217125,-0.036697246,-1.1740061,0.0,0.0,0.0
2026-05-10 20:54:59.810,216,1.3217125,-0.036697246,-1.1740061,0.0,0.0,0.0
2026-05-10 20:54:59.820,217,1.3217125,-0.036697246,-1.1740061,0.0,0.0,0.0
2026-05-10 20:54:59.830,218,1.3217125,-0.036697246,-1.1740061,0.0,0.0,0.0
2026-05-10 20:54:59.840,219,1.558211,-0.14698777,-1.2926606,0.0,0.0,0.0
2026-05-10 20:54:59.850,220,1.9082569000000003,-0.33221713,-1.3642201,0.0,0.0,0.0
2026-05-10 20:54:59.860,221,1.9082569000000003,-0.33221713,-1.3642201,0.0,0.0,0.0
2026-05-10 20:54:59.870,222,1.9082569000000003,-0.33221713,-1.3642201,0.0,0.0,0.0
2026-05-10 20:54:59.880,223,1.9082569000000003,-0.33221713,-1.3642201,0.0,0.0,0.0
2026-05-10 20:54:59.890,224,1.9082569000000003,-0.33221713,-1.3642201,0.0,0.0,0.0
2026-05-10 20:54:59.900,225,2.0956879666666666,-0.41566259666666666,-1.4131498333333334,0.0,0.0,0.0
2026-05-10 20:54:59.910,226,2.1894035,-0.45738533,-1.4376147,0.0,0.0,0.0
2026-05-10 20:54:59.920,227,2.1894035,-0.45738533,-1.4376147,0.0,0.0,0.0
2026-05-10 20:54:59.930,228,2.1894035,-0.45738533,-1.4376147,0.0,0.0,0.0
2026-05-10 20:54:59.940,229,2.1894035,-0.45738533,-1.4376147,0.0,0.0,0.0
2026-05-10 20:54:59.950,230,2.1894035,-0.45738533,-1.4376147,0.0,0.0,0.0
2026-05-10 20:54:59.960,231,2.1894035,-0.45738533,-1.4376147,0.0,0.0,0.0
2026-05-10 20:54:59.970,232,2.1894035,-0.45738533,-1.4376147,0.0,0.0,0.0
2026-05-10 20:54:59.980,233,2.1894035,-0.45738533,-1.4376147,0.0,0.0,0.0
2026-05-10 20:54:59.990,234,2.1894035,-0.45738533,-1.4376147,0.0,0.0,0.0
2026-05-10 20:55:00.000,235,2.1894035,-0.45738533,-1.4376147,0.0,0.0,0.0
2026-05-10 20:55:00.010,236,2.1894035,-0.45738533,-1.4376147,0.0,0.0,0.0
2026-05-10 20:55:00.020,237,2.2364984,-0.682263,-1.4783945,0.0,0.0,0.0
2026-05-10 20:55:00.030,238,2.2364984,-0.682263,-1.4783945,0.0,0.0,0.0
2026-05-10 20:55:00.040,239,2.2364984,-0.682263,-1.4783945,0.0,0.0,0.0
2026-05-10 20:55:00.050,240,2.2311428749999997,-0.7519878,-1.47770645,0.0,0.0,0.0
2026-05-10 20:55:00.060,241,2.2293577,-0.7752294000000001,-1.4774771,0.0,0.0,0.0
2026-05-10 20:55:00.070,242,2.2293577,-0.7752294,-1.4774771,0.0,0.0,0.0
2026-05-10 20:55:00.080,243,2.2293577,-0.7752294000000001,-1.4774771,0.0,0.0,0.0
2026-05-10 20:55:00.090,244,2.1801224,-0.841789,-1.4164068,0.0,0.0,0.0
2026-05-10 20:55:00.100,245,2.1801224,-0.841789,-1.4164068,0.0,0.0,0.0
2026-05-10 20:55:00.110,246,2.1801224,-0.841789,-1.4164068,0.0,0.0,0.0
2026-05-10 20:55:00.120,247,2.1801224,-0.841789,-1.4164068,0.0,0.0,0.0
2026-05-10 20:55:00.130,248,2.1801224,-0.841789,-1.4164068,0.0,0.0,0.0
2026-05-10 20:55:00.140,249,2.0422018,-1.0541284,-1.1176299,0.0,0.0,0.0
2026-05-10 20:55:00.150,250,2.0422018,-1.0541284,-1.1176299,0.0,0.0,0.0
2026-05-10 20:55:00.160,251,2.0422018,-1.0541284,-1.1176299,0.0,0.0,0.0
2026-05-10 20:55:00.170,252,2.0422018,-1.0541284,-1.1176299,0.0,0.0,0.0
2026-05-10 20:55:00.180,253,2.0422018,-1.0541284,-1.1176299,0.0,0.0,0.0
2026-05-10 20:55:00.190,254,2.0422018,-1.0541284,-1.1176299,0.0,0.0,0.0
2026-05-10 20:55:00.200,255,2.0422018,-1.0541284,-1.1176299,0.0,0.0,0.0
2026-05-10 20:55:00.210,256,2.0422018,-1.0541284,-1.1176299,0.0,0.0,0.0
2026-05-10 20:55:00.220,257,1.8967087,-1.1118463,-0.9831574725,0.0,0.0,0.0
2026-05-10 20:55:00.230,258,1.848211,-1.1310856,-0.93833333,0.0,0.0,0.0
2026-05-10 20:55:00.240,259,1.6534097999999997,-1.2109021,-0.80570334,0.0,0.0,0.0
2026-05-10 20:55:00.250,260,1.6534098,-1.2109021,-0.80570334,0.0,0.0,0.0
2026-05-10 20:55:00.260,261,1.5704332333333333,-1.2489602333333334,-0.8013200733333333,0.0,0.0,0.0
2026-05-10 20:55:00.270,262,1.0932722,-1.451789,-0.7896024599999999,0.0,0.0,0.0
2026-05-10 20:55:00.280,263,1.0932722,-1.451789,-0.78960246,0.0,0.0,0.0
2026-05-10 20:55:00.290,264,1.0932722,-1.451789,-0.7896024599999999,0.0,0.0,0.0
2026-05-10 20:55:00.300,265,1.0932722,-1.451789,-0.7896024599999999,0.0,0.0,0.0
2026-05-10 20:55:00.310,266,-0.24576454,-1.5449542,-0.68715596,0.0,0.0,0.0
2026-05-10 20:55:00.320,267,-0.24576454,-1.5449542,-0.68715596,0.0,0.0,0.0
2026-05-10 20:55:00.330,268,-0.24576454,-1.5449542,-0.68715596,0.0,0.0,0.0
2026-05-10 20:55:00.340,269,-0.24576454,-1.5449542,-0.68715596,0.0,0.0,0.0
2026-05-10 20:55:00.350,270,-0.24576454,-1.5449542,-0.68715596,0.0,0.0,0.0
2026-05-10 20:55:00.360,271,-0.24576454,-1.5449542,-0.68715596,0.0,0.0,0.0
2026-05-10 20:55:00.370,272,-0.24576454,-1.5449542,-0.68715596,0.0,0.0,0.0
2026-05-10 20:55:00.380,273,0.05362384499999999,-1.5485245,-0.75743883,0.0,0.0,0.0
2026-05-10 20:55:00.390,274,0.35301223,-1.5520948,-0.8277217,0.0,0.0,0.0
2026-05-10 20:55:00.400,275,0.35301223,-1.5520948,-0.8277217,0.0,0.0,0.0
2026-05-10 20:55:00.410,276,0.35301223,-1.5520948,-0.8277217,0.0,0.0,0.0
2026-05-10 20:55:00.420,277,0.35301223,-1.5520948,-0.8277217,0.0,0.0,0.0
2026-05-10 20:55:00.430,278,0.35301223,-1.5520948,-0.8277217,0.0,0.0,0.0
2026-05-10 20:55:00.440,279,0.07767584,-1.5415902,-0.7288532,0.0,0.0,0.0
2026-05-10 20:55:00.450,280,0.07767584,-1.5415902,-0.7288532,0.0,0.0,0.0
2026-05-10 20:55:00.460,281,0.07767584,-1.5415902,-0.7288532,0.0,0.0,0.0
2026-05-10 20:55:00.470,282,0.07767584,-1.5415902,-0.7288532,0.0,0.0,0.0
2026-05-10 20:55:00.480,283,0.07767584,-1.5415902,-0.7288532,0.0,0.0,0.0
2026-05-10 20:55:00.490,284,0.07767584,-1.5415902,-0.7288532,0.0,0.0,0.0
2026-05-10 20:55:00.500,285,0.07767584,-1.5415902,-0.7288532,0.0,0.0,0.0
2026-05-10 20:55:00.510,286,-0.25443424,-1.5418960000000002,-0.7306524,0.0,0.0,0.0
2026-05-10 20:55:00.520,287,-0.9186544,-1.5425076,-0.7342508,0.0,0.0,0.0
2026-05-10 20:55:00.530,288,-0.9186544,-1.5425075999999998,-0.7342508,0.0,0.0,0.0
2026-05-10 20:55:00.540,289,-0.9186544,-1.5425076,-0.7342508,0.0,0.0,0.0
2026-05-10 20:55:00.550,290,-0.9506268999999999,-1.5289500333333332,-0.72562185,0.0,0.0,0.0
2026-05-10 20:55:00.560,291,-1.0145719,-1.5018348999999998,-0.70836395,0.0,0.0,0.0
2026-05-10 20:55:00.570,292,-1.0145719,-1.5018349,-0.70836395,0.0,0.0,0.0
2026-05-10 20:55:00.580,293,-1.0145719,-1.5018348999999998,-0.70836395,0.0,0.0,0.0
2026-05-10 20:55:00.590,294,-1.0145719,-1.5018349,-0.70836395,0.0,0.0,0.0
2026-05-10 20:55:00.600,295,-1.0145719,-1.5018348999999998,-0.70836395,0.0,0.0,0.0
2026-05-10 20:55:00.610,296,-1.0438685666666667,-1.4757391000000002,-0.5687716833333333,0.0,0.0,0.0
2026-05-10 20:55:00.620,297,-1.1195413,-1.4359480666666666,-0.39377676666666667,0.0,0.0,0.0
2026-05-10 20:55:00.630,298,-1.2415901,-1.3824618,-0.1833792,0.0,0.0,0.0
2026-05-10 20:55:00.640,299,-1.2415901,-1.3824618,-0.1833792,0.0,0.0,0.0
2026-05-10 20:55:00.650,300,-1.2415901,-1.3824618,-0.1833792,0.0,0.0,0.0
2026-05-10 20:55:00.660,301,-1.2415901,-1.3824618,-0.1833792,0.0,0.0,0.0
2026-05-10 20:55:00.670,302,-1.2415901,-1.3824618,-0.1833792,0.0,0.0,0.0
2026-05-10 20:55:00.680,303,-1.2415901,-1.3824618,-0.1833792,0.0,0.0,0.0
2026-05-10 20:55:00.690,304,-1.2415901,-1.3824618,-0.1833792,0.0,0.0,0.0
2026-05-10 20:55:00.700,305,-1.2415901,-1.3824618,-0.1833792,0.0,0.0,0.0
2026-05-10 20:55:00.710,306,-1.2415901,-1.3824618,-0.1833792,0.0,0.0,0.0
2026-05-10 20:55:00.720,307,-1.480734,-1.3387309,0.15993884,0.0,0.0,0.0
2026-05-10 20:55:00.730,308,-1.480734,-1.3387309,0.15993884,0.0,0.0,0.0
2026-05-10 20:55:00.740,309,-1.480734,-1.3387309,0.15993884,0.0,0.0,0.0
2026-05-10 20:55:00.750,310,-1.480734,-1.3387309,0.15993884,0.0,0.0,0.0
2026-05-10 20:55:00.760,311,-1.5232416,-1.3257952,0.34954128,0.0,0.0,0.0
2026-05-10 20:55:00.770,312,-1.4106319999999999,-1.2857645333333332,0.46282365999999997,0.0,0.0,0.0
2026-05-10 20:55:00.780,313,-1.3543272,-1.2657492,0.51946485,0.0,0.0,0.0
2026-05-10 20:55:00.790,314,-1.3543272,-1.2657492,0.51946485,0.0,0.0,0.0
2026-05-10 20:55:00.800,315,-1.3543272,-1.2657492,0.51946485,0.0,0.0,0.0
2026-05-10 20:55:00.810,316,-1.0365902,-1.2167125,0.90897554,0.0,0.0,0.0
2026-05-10 20:55:00.820,317,-1.0895667333333334,-1.3471254000000001,1.04801736,0.0,0.0,0.0
2026-05-10 20:55:00.830,318,-1.1955198,-1.6079511999999998,1.326101,0.0,0.0,0.0
2026-05-10 20:55:00.840,319,-1.1955198,-1.6079512,1.326101,0.0,0.0,0.0
2026-05-10 20:55:00.850,320,-1.1955198,-1.6079511999999998,1.326101,0.0,0.0,0.0
2026-05-10 20:55:00.860,321,-1.1955198,-1.6079511999999998,1.326101,0.0,0.0,0.0
2026-05-10 20:55:00.870,322,-2.063542333333333,-1.2617024000000001,0.9747553999999999,0.0,0.0,0.0
2026-05-10 20:55:00.880,323,-2.4975536,-1.088578,0.7990825999999999,0.0,0.0,0.0
2026-05-10 20:55:00.890,324,-2.4975536,-1.088578,0.7990825999999999,0.0,0.0,0.0
2026-05-10 20:55:00.900,325,-2.4975536,-1.088578,0.7990826,0.0,0.0,0.0
2026-05-10 20:55:00.910,326,-2.4975536,-1.088578,0.7990826,0.0,0.0,0.0
2026-05-10 20:55:00.920,327,-2.4975536,-1.088578,0.7990825999999999,0.0,0.0,0.0
2026-05-10 20:55:00.930,328,-2.4975536,-1.088578,0.7990825999999999,0.0,0.0,0.0
2026-05-10 20:55:00.940,329,-2.2020744,-1.0205555466666667,0.8431855333333332,0.0,0.0,0.0
2026-05-10 20:55:00.950,330,-1.8785933,-0.96188074,0.9301682,0.0,0.0,0.0
2026-05-10 20:55:00.960,331,-1.3928950333333334,-0.9824006466666667,1.1150204,0.0,0.0,0.0
2026-05-10 20:55:00.970,332,-1.1500459,-0.9926606000000001,1.2074465,0.0,0.0,0.0
2026-05-10 20:55:00.980,333,-1.1500459,-0.9926606,1.2074465,0.0,0.0,0.0
2026-05-10 20:55:00.990,334,-1.1500459,-0.9926606000000001,1.2074465,0.0,0.0,0.0
2026-05-10 20:55:01.000,335,-1.0407084666666666,-0.8560295333333334,1.3176656333333332,0.0,0.0,0.0
2026-05-10 20:55:01.010,336,-1.1735015,-0.8337462,1.4712539,0.0,0.0,0.0
2026-05-10 20:55:01.020,337,-1.1735015,-0.8337461999999999,1.4712539,0.0,0.0,0.0
2026-05-10 20:55:01.030,338,-1.1735015,-0.8337461999999999,1.4712539,0.0,0.0,0.0
2026-05-10 20:55:01.040,339,-1.3906001,-0.73344038,1.37313845,0.0,0.0,0.0
2026-05-10 20:55:01.050,340,-2.0418959,-0.43252292,1.0787921,0.0,0.0,0.0
2026-05-10 20:55:01.060,341,-2.0418959,-0.43252292,1.0787921,0.0,0.0,0.0
2026-05-10 20:55:01.070,342,-2.0418959,-0.43252292,1.0787921,0.0,0.0,0.0
2026-05-10 20:55:01.080,343,-2.0418959,-0.43252292,1.0787921,0.0,0.0,0.0
2026-05-10 20:55:01.090,344,-2.0418959,-0.43252292,1.0787921,0.0,0.0,0.0
2026-05-10 20:55:01.100,345,-2.353104,-0.3842049,0.8730886999999999,0.0,0.0,0.0
2026-05-10 20:55:01.110,346,-2.353104,-0.3842049,0.8730886999999999,0.0,0.0,0.0
2026-05-10 20:55:01.120,347,-2.353104,-0.3842049,0.8730887,0.0,0.0,0.0
2026-05-10 20:55:01.130,348,-2.353104,-0.3842049,0.8730886999999999,0.0,0.0,0.0
2026-05-10 20:55:01.140,349,-2.4204536666666665,-0.37353211000000003,0.8320744133333333,0.0,0.0,0.0
2026-05-10 20:55:01.150,350,-2.555153,-0.35218653,0.75004584,0.0,0.0,0.0
2026-05-10 20:55:01.160,351,-2.5419674666666663,-0.3548063133333333,0.7376809133333332,0.0,0.0,0.0
2026-05-10 20:55:01.170,352,-2.5155964,-0.36004588,0.71295106,0.0,0.0,0.0
2026-05-10 20:55:01.180,353,-2.336571175,-0.3824961775,0.6791590125,0.0,0.0,0.0
2026-05-10 20:55:01.190,354,-1.7592202,-0.3556575,0.53669727,0.0,0.0,0.0
2026-05-10 20:55:01.200,355,-2.1041055249999996,-0.2908295025,0.53524083,0.0,0.0,0.0
2026-05-10 20:55:01.210,356,-2.2190673,-0.26922017,0.53475535,0.0,0.0,0.0
2026-05-10 20:55:01.220,357,-2.2190673,-0.26922017,0.53475535,0.0,0.0,0.0
2026-05-10 20:55:01.230,358,-2.2190673,-0.26922017,0.53475535,0.0,0.0,0.0
2026-05-10 20:55:01.240,359,-2.2190673,-0.26922017,0.53475535,0.0,0.0,0.0
2026-05-10 20:55:01.250,360,-2.2190673,-0.26922017,0.53475535,0.0,0.0,0.0
2026-05-10 20:55:01.260,361,-2.6598419,-0.23910805666666665,0.6299643166666666,0.0,0.0,0.0
2026-05-10 20:55:01.270,362,-2.8802292,-0.224052,0.6775688,0.0,0.0,0.0
2026-05-10 20:55:01.280,363,-2.8802292,-0.224052,0.6775688,0.0,0.0,0.0
2026-05-10 20:55:01.290,364,-3.3034708,-0.06207951,0.9133486,0.0,0.0,0.0
2026-05-10 20:55:01.300,365,-3.3034708,-0.06207951,0.9133486,0.0,0.0,0.0
2026-05-10 20:55:01.310,366,-3.3034708,-0.06207951,0.9133486,0.0,0.0,0.0
2026-05-10 20:55:01.320,367,-3.3034708,-0.06207951,0.9133486,0.0,0.0,0.0
2026-05-10 20:55:01.330,368,-3.0252446,-0.06221203,0.9662232666666667,0.0,0.0,0.0
2026-05-10 20:55:01.340,369,-2.8861315,-0.06227828999999999,0.9926606000000001,0.0,0.0,0.0
2026-05-10 20:55:01.350,370,-2.8861315,-0.06227828999999999,0.9926606000000001,0.0,0.0,0.0
2026-05-10 20:55:01.360,371,-2.8861315,-0.06227829,0.9926606,0.0,0.0,0.0
2026-05-10 20:55:01.370,372,-2.8861315,-0.06227828999999999,0.9926606000000001,0.0,0.0,0.0
2026-05-10 20:55:01.380,373,-2.8861315,-0.06227828999999999,0.9926606000000001,0.0,0.0,0.0
2026-05-10 20:55:01.390,374,-2.8861315,-0.06227828999999999,0.9926606000000001,0.0,0.0,0.0
2026-05-10 20:55:01.400,375,-2.8861315,-0.06227829,0.9926606,0.0,0.0,0.0
2026-05-10 20:55:01.410,376,-2.8861315,-0.06227828999999999,0.9926606000000001,0.0,0.0,0.0
2026-05-10 20:55:01.420,377,-2.8861315,-0.06227828999999999,0.9926606000000001,0.0,0.0,0.0
2026-05-10 20:55:01.430,378,-2.8861315,-0.06227829,0.9926606,0.0,0.0,0.0
2026-05-10 20:55:01.440,379,-2.1912386,-0.1462844,1.0700306,0.0,0.0,0.0
2026-05-10 20:55:01.450,380,-2.1912386,-0.1462844,1.0700306,0.0,0.0,0.0
2026-05-10 20:55:01.460,381,-2.1912386,-0.1462844,1.0700306,0.0,0.0,0.0
2026-05-10 20:55:01.470,382,-2.1912386,-0.1462844,1.0700306,0.0,0.0,0.0
2026-05-10 20:55:01.480,383,-2.1912386,-0.1462844,1.0700306,0.0,0.0,0.0
2026-05-10 20:55:01.490,384,-2.0426147333333335,-0.1672477,1.0733588333333333,0.0,0.0,0.0
2026-05-10 20:55:01.500,385,-1.745367,-0.2091743,1.0800153,0.0,0.0,0.0
2026-05-10 20:55:01.510,386,-1.0368043,-0.6599745,0.9302395666666666,0.0,0.0,0.0
2026-05-10 20:55:01.520,387,-0.3282415999999999,-1.1107747000000001,0.7804638333333334,0.0,0.0,0.0
2026-05-10 20:55:01.530,388,0.3803211,-1.5615749,0.6306881,0.0,0.0,0.0
2026-05-10 20:55:01.540,389,0.3803211,-1.5615749,0.6306881,0.0,0.0,0.0
2026-05-10 20:55:01.550,390,0.36483180000000004,-1.4584633,0.6142202,0.0,0.0,0.0
2026-05-10 20:55:01.560,391,0.34934249999999994,-1.3553517,0.5977523,0.0,0.0,0.0
2026-05-10 20:55:01.570,392,0.3493425,-1.3553517,0.5977523,0.0,0.0,0.0
2026-05-10 20:55:01.580,393,0.3493425,-1.3553517,0.5977523,0.0,0.0,0.0
2026-05-10 20:55:01.590,394,0.3493425,-1.3553517,0.5977523,0.0,0.0,0.0
2026-05-10 20:55:01.600,395,0.34934249999999994,-1.3553517,0.5977523,0.0,0.0,0.0
2026-05-10 20:55:01.610,396,0.34934249999999994,-1.3553517,0.5977523,0.0,0.0,0.0
2026-05-10 20:55:01.620,397,0.34934249999999994,-1.3553517,0.5977523,0.0,0.0,0.0
2026-05-10 20:55:01.630,398,0.3493425,-1.3553517,0.5977523,0.0,0.0,0.0
2026-05-10 20:55:01.640,399,0.34934249999999994,-1.3553517,0.5977523,0.0,0.0,0.0
2026-05-10 20:55:01.650,400,0.34934249999999994,-1.3553517,0.5977523,0.0,0.0,0.0
2026-05-10 20:55:01.660,401,0.3493425,-1.3553517,0.5977523,0.0,0.0,0.0
2026-05-10 20:55:01.670,402,0.34934249999999994,-1.3553517,0.5977523,0.0,0.0,0.0
2026-05-10 20:55:01.680,403,0.34934249999999994,-1.3553517,0.5977523,0.0,0.0,0.0
2026-05-10 20:55:01.690,404,0.3493425,-1.3553517,0.5977523,0.0,0.0,0.0
2026-05-10 20:55:01.700,405,0.3935117166666666,-1.3530734000000002,0.5557900166666667,0.0,0.0,0.0
2026-05-10 20:55:01.710,406,0.4818501499999999,-1.3485167999999998,0.47186544999999996,0.0,0.0,0.0
2026-05-10 20:55:01.720,407,0.78454129,-1.3016259333333333,0.3553211033333333,0.0,0.0,0.0
2026-05-10 20:55:01.730,408,0.93588686,-1.2781805,0.29704893,0.0,0.0,0.0
2026-05-10 20:55:01.740,409,0.93588686,-1.2781805,0.29704893,0.0,0.0,0.0
2026-05-10 20:55:01.750,410,0.93588686,-1.2781805,0.29704893,0.0,0.0,0.0
2026-05-10 20:55:01.760,411,1.0066615733333333,-1.2642864999999999,0.2520591233333333,0.0,0.0,0.0
2026-05-10 20:55:01.770,412,1.3444495000000003,-1.2233486,0.04637615,0.0,0.0,0.0
2026-05-10 20:55:01.780,413,1.3444495,-1.2233486,0.04637615,0.0,0.0,0.0
2026-05-10 20:55:01.790,414,1.3444495000000003,-1.2233486,0.04637615,0.0,0.0,0.0
2026-05-10 20:55:01.800,415,1.3444495000000003,-1.2233486,0.04637615,0.0,0.0,0.0
2026-05-10 20:55:01.810,416,1.3444495000000003,-1.2233486,0.04637615,0.0,0.0,0.0
2026-05-10 20:55:01.820,417,1.4264678999999998,-1.1789042,-0.06290010333333333,0.0,0.0,0.0
2026-05-10 20:55:01.830,418,1.4674771,-1.156682,-0.11753823,0.0,0.0,0.0
2026-05-10 20:55:01.840,419,1.4674771,-1.156682,-0.11753823000000001,0.0,0.0,0.0
2026-05-10 20:55:01.850,420,1.4674771,-1.156682,-0.11753823000000001,0.0,0.0,0.0
2026-05-10 20:55:01.860,421,1.4674771,-1.156682,-0.11753823,0.0,0.0,0.0
2026-05-10 20:55:01.870,422,1.4674771,-1.156682,-0.11753823000000001,0.0,0.0,0.0
2026-05-10 20:55:01.880,423,1.574312,-1.1251835,-0.20897552,0.0,0.0,0.0
2026-05-10 20:55:01.890,424,1.574312,-1.1251835,-0.20897552,0.0,0.0,0.0
2026-05-10 20:55:01.900,425,1.574312,-1.1251835,-0.20897552,0.0,0.0,0.0
2026-05-10 20:55:01.910,426,1.6726758,-0.9626911,-0.36472479,0.0,0.0,0.0
2026-05-10 20:55:01.920,427,1.6726758,-0.9626911,-0.36472479,0.0,0.0,0.0
2026-05-10 20:55:01.930,428,1.6726758,-0.9626911,-0.36472479,0.0,0.0,0.0
2026-05-10 20:55:01.940,429,1.6726758,-0.9626911,-0.36472479,0.0,0.0,0.0
2026-05-10 20:55:01.950,430,1.6726758,-0.9626911,-0.36472479,0.0,0.0,0.0
2026-05-10 20:55:01.960,431,1.6726758,-0.9626911,-0.36472479,0.0,0.0,0.0
2026-05-10 20:55:01.970,432,1.6726758,-0.9626911,-0.36472479,0.0,0.0,0.0
2026-05-10 20:55:01.980,433,1.6726758,-0.9626911,-0.36472479,0.0,0.0,0.0
2026-05-10 20:55:01.990,434,1.6726757999999997,-0.9626911000000001,-0.3647247900000001,0.0,0.0,0.0
2026-05-10 20:55:02.000,435,1.6726757999999997,-0.9626911000000001,-0.3647247900000001,0.0,0.0,0.0
2026-05-10 20:55:02.010,436,1.6726757999999997,-0.9626911000000001,-0.3647247900000001,0.0,0.0,0.0
2026-05-10 20:55:02.020,437,1.6726757999999997,-0.9626911000000001,-0.3647247900000001,0.0,0.0,0.0
2026-05-10 20:55:02.030,438,1.6297706,-0.8088685,-0.42282873,0.0,0.0,0.0
2026-05-10 20:55:02.040,439,1.6283740666666666,-0.7845413,-0.44675329999999996,0.0,0.0,0.0
2026-05-10 20:55:02.050,440,1.6255809999999997,-0.7358869,-0.49460244,0.0,0.0,0.0
2026-05-10 20:55:02.060,441,1.6255809999999997,-0.7358869,-0.49460244,0.0,0.0,0.0
2026-05-10 20:55:02.070,442,1.625581,-0.7358869,-0.49460244,0.0,0.0,0.0
2026-05-10 20:55:02.080,443,1.6644189999999999,-0.69683486,-0.5077523,0.0,0.0,0.0
2026-05-10 20:55:02.090,444,1.7507646,-0.658104,-0.5172324,0.0,0.0,0.0
2026-05-10 20:55:02.100,445,1.7507646,-0.658104,-0.5172324,0.0,0.0,0.0
2026-05-10 20:55:02.110,446,1.7507646,-0.658104,-0.5172324,0.0,0.0,0.0
2026-05-10 20:55:02.120,447,1.7507646,-0.658104,-0.5172324,0.0,0.0,0.0
2026-05-10 20:55:02.130,448,1.7507646,-0.658104,-0.5172324,0.0,0.0,0.0
2026-05-10 20:55:02.140,449,1.8359785000000002,-0.50937307,-0.5570795,0.0,0.0,0.0
2026-05-10 20:55:02.150,450,1.8369367666666667,-0.4601070233333333,-0.58195208,0.0,0.0,0.0
2026-05-10 20:55:02.160,451,1.7729128250000001,-0.38091360500000004,-0.6166628275,0.0,0.0,0.0
2026-05-10 20:55:02.170,452,1.5794036,-0.21723242,-0.6834862,0.0,0.0,0.0
2026-05-10 20:55:02.180,453,1.5794036,-0.21723242,-0.6834862,0.0,0.0,0.0
2026-05-10 20:55:02.190,454,1.5794036,-0.21723242,-0.6834862,0.0,0.0,0.0
2026-05-10 20:55:02.200,455,1.5794036,-0.21723242,-0.6834862,0.0,0.0,0.0
2026-05-10 20:55:02.210,456,1.5794036,-0.21723242,-0.6834862,0.0,0.0,0.0
2026-05-10 20:55:02.220,457,1.5794036,-0.21723242,-0.6834862,0.0,0.0,0.0
2026-05-10 20:55:02.230,458,1.6436951666666666,-0.26728339,-0.6659887466666667,0.0,0.0,0.0
2026-05-10 20:55:02.240,459,1.7722783,-0.36738533,-0.63099384,0.0,0.0,0.0
2026-05-10 20:55:02.250,460,1.7722783,-0.36738533,-0.63099384,0.0,0.0,0.0
2026-05-10 20:55:02.260,461,1.7722783,-0.36738533,-0.63099384,0.0,0.0,0.0
2026-05-10 20:55:02.270,462,1.7722783,-0.36738533,-0.63099384,0.0,0.0,0.0
2026-05-10 20:55:02.280,463,1.7722783,-0.36738533,-0.63099384,0.0,0.0,0.0
2026-05-10 20:55:02.290,464,1.7722783,-0.36738533,-0.63099384,0.0,0.0,0.0
2026-05-10 20:55:02.300,465,1.7722783,-0.36738533,-0.63099384,0.0,0.0,0.0
2026-05-10 20:55:02.310,466,1.7079867333333334,-0.31733436,-0.6484912933333334,0.0,0.0,0.0
2026-05-10 20:55:02.320,467,1.5794036,-0.21723242,-0.6834862,0.0,0.0,0.0
2026-05-10 20:55:02.330,468,1.5794036,-0.21723242,-0.6834862,0.0,0.0,0.0
2026-05-10 20:55:02.340,469,1.5794036,-0.21723242,-0.6834862,0.0,0.0,0.0
2026-05-10 20:55:02.350,470,1.5794036,-0.21723242,-0.6834862,0.0,0.0,0.0
2026-05-10 20:55:02.360,471,1.465948,-0.047400612,-0.7815442999999999,0.0,0.0,0.0
2026-05-10 20:55:02.370,472,1.465948,-0.047400612,-0.7815442999999999,0.0,0.0,0.0
2026-05-10 20:55:02.380,473,1.465948,-0.047400612,-0.7815443,0.0,0.0,0.0
2026-05-10 20:55:02.390,474,1.465948,-0.047400612,-0.7815442999999999,0.0,0.0,0.0
2026-05-10 20:55:02.400,475,1.465948,-0.047400612,-0.7815443,0.0,0.0,0.0
2026-05-10 20:55:02.410,476,1.465948,-0.047400612,-0.7815442999999999,0.0,0.0,0.0
2026-05-10 20:55:02.420,477,1.4527981,0.021100918,-0.7964373,0.0,0.0,0.0
2026-05-10 20:55:02.430,478,1.4527981,0.021100918,-0.7964373,0.0,0.0,0.0
2026-05-10 20:55:02.440,479,1.4527981,0.021100918,-0.7964373,0.0,0.0,0.0
2026-05-10 20:55:02.450,480,1.4527981,0.021100918,-0.7964373,0.0,0.0,0.0
2026-05-10 20:55:02.460,481,1.4527981,0.021100918,-0.7964373,0.0,0.0,0.0
2026-05-10 20:55:02.470,482,1.4527981,0.021100918,-0.7964373,0.0,0.0,0.0
2026-05-10 20:55:02.480,483,1.4527981,0.021100918,-0.7964373,0.0,0.0,0.0
2026-05-10 20:55:02.490,484,1.4527981,0.021100918,-0.7964373,0.0,0.0,0.0
2026-05-10 20:55:02.500,485,1.4527981,0.021100918,-0.7964373,0.0,0.0,0.0
2026-05-10 20:55:02.510,486,1.4527981,0.021100918,-0.7964373,0.0,0.0,0.0
2026-05-10 20:55:02.520,487,1.4527981,0.021100918,-0.7964373,0.0,0.0,0.0
2026-05-10 20:55:02.530,488,1.4527981,0.021100918,-0.7964373,0.0,0.0,0.0
2026-05-10 20:55:02.540,489,1.4247706,0.031804282,-0.8296636,0.0,0.0,0.0
2026-05-10 20:55:02.550,490,1.4247705999999998,0.031804282,-0.8296636,0.0,0.0,0.0
2026-05-10 20:55:02.560,491,1.42655195,0.0319571885,-0.82553515,0.0,0.0,0.0
2026-05-10 20:55:02.570,492,1.4283333,0.032110095,-0.8214067000000002,0.0,0.0,0.0
2026-05-10 20:55:02.580,493,1.4283333,0.032110095,-0.8214067000000002,0.0,0.0,0.0
2026-05-10 20:55:02.590,494,1.4283333,0.032110095,-0.8214067,0.0,0.0,0.0
2026-05-10 20:55:02.600,495,1.4283333,0.032110095,-0.8214067000000002,0.0,0.0,0.0
2026-05-10 20:55:02.610,496,1.4283333,0.032110095,-0.8214067000000002,0.0,0.0,0.0
2026-05-10 20:55:02.620,497,1.4283333,0.032110095,-0.8214067000000002,0.0,0.0,0.0
2026-05-10 20:55:02.630,498,1.4283333,0.032110095,-0.8214067,0.0,0.0,0.0
2026-05-10 20:55:02.640,499,1.4283333,0.032110095,-0.8214067000000002,0.0,0.0,0.0
2026-05-10 20:55:02.650,500,1.39982415,0.03173165175,-0.820110805,0.0,0.0,0.0
2026-05-10 20:55:02.660,501,1.3624515666666668,0.011075433039999999,-0.88851684,0.0,0.0,0.0
2026-05-10 20:55:02.670,502,1.3485167999999998,0.00081039756,-0.92293584,0.0,0.0,0.0
2026-05-10 20:55:02.680,503,1.3485168,0.00081039756,-0.92293584,0.0,0.0,0.0
2026-05-10 20:55:02.690,504,1.3485167999999998,0.00081039756,-0.92293584,0.0,0.0,0.0
2026-05-10 20:55:02.700,505,1.3485167999999998,0.00081039756,-0.92293584,0.0,0.0,0.0
2026-05-10 20:55:02.710,506,1.3446483,-0.06610856122,-1.10009937,0.0,0.0,0.0
2026-05-10 20:55:02.720,507,1.3407798,-0.13302752,-1.2772629,0.0,0.0,0.0
2026-05-10 20:55:02.730,508,1.3407798,-0.13302752,-1.2772629,0.0,0.0,0.0
2026-05-10 20:55:02.740,509,1.3407798,-0.13302752,-1.2772629,0.0,0.0,0.0
2026-05-10 20:55:02.750,510,1.3407798,-0.13302752,-1.2772629,0.0,0.0,0.0
2026-05-10 20:55:02.760,511,1.36547025,-0.15719036749999998,-1.3657263,0.0,0.0,0.0
2026-05-10 20:55:02.770,512,1.3737004,-0.16524465,-1.3952140999999998,0.0,0.0,0.0
2026-05-10 20:55:02.780,513,1.3737004,-0.16524465,-1.3952140999999998,0.0,0.0,0.0
2026-05-10 20:55:02.790,514,1.3737004,-0.16524465,-1.3952141,0.0,0.0,0.0
2026-05-10 20:55:02.800,515,1.3737004,-0.16524465,-1.3952140999999998,0.0,0.0,0.0
2026-05-10 20:55:02.810,516,1.3737004,-0.16524465,-1.3952141,0.0,0.0,0.0
2026-05-10 20:55:02.820,517,1.3815444,-0.23047401,-1.4379206,0.0,0.0,0.0
2026-05-10 20:55:02.830,518,1.3815444,-0.23047401,-1.4379206,0.0,0.0,0.0
2026-05-10 20:55:02.840,519,1.3815444,-0.23047401,-1.4379206,0.0,0.0,0.0
2026-05-10 20:55:02.850,520,1.3815444,-0.23047401,-1.4379206,0.0,0.0,0.0
2026-05-10 20:55:02.860,521,1.3837207333333332,-0.2592558566666667,-1.4384659333333332,0.0,0.0,0.0
2026-05-10 20:55:02.870,522,1.3880734,-0.31681955,-1.4395566,0.0,0.0,0.0
2026-05-10 20:55:02.880,523,1.3880734,-0.31681955,-1.4395566000000002,0.0,0.0,0.0
2026-05-10 20:55:02.890,524,1.3880734,-0.31681955,-1.4395566000000002,0.0,0.0,0.0
2026-05-10 20:55:02.900,525,1.3880734,-0.31681955,-1.4395566000000002,0.0,0.0,0.0
2026-05-10 20:55:02.910,526,1.3880734,-0.31681955,-1.4395566,0.0,0.0,0.0
2026-05-10 20:55:02.920,527,1.4154638000000002,-0.43839959666666667,-1.2445107333333334,0.0,0.0,0.0
2026-05-10 20:55:02.930,528,1.429159,-0.49918961999999995,-1.1469878,0.0,0.0,0.0
2026-05-10 20:55:02.940,529,1.429159,-0.49918961999999995,-1.1469878,0.0,0.0,0.0
2026-05-10 20:55:02.950,530,1.429159,-0.49918962,-1.1469878,0.0,0.0,0.0
2026-05-10 20:55:02.960,531,1.4545005333333334,-0.5816870733333334,-1.0254179666666667,0.0,0.0,0.0
2026-05-10 20:55:02.970,532,1.4671712999999997,-0.6229358,-0.9646330500000001,0.0,0.0,0.0
2026-05-10 20:55:02.980,533,1.4671713,-0.6229358,-0.96463305,0.0,0.0,0.0
2026-05-10 20:55:02.990,534,1.4671712999999997,-0.6229358,-0.9646330500000001,0.0,0.0,0.0
2026-05-10 20:55:03.000,535,1.475963325,-0.6635588925,-0.9252828975,0.0,0.0,0.0
2026-05-10 20:55:03.010,536,1.5023394,-0.78542817,-0.80723244,0.0,0.0,0.0
2026-05-10 20:55:03.020,537,1.5023394,-0.78542817,-0.80723244,0.0,0.0,0.0
2026-05-10 20:55:03.030,538,1.5023394,-0.78542817,-0.80723244,0.0,0.0,0.0
2026-05-10 20:55:03.040,539,1.5023394,-0.78542817,-0.80723244,0.0,0.0,0.0
2026-05-10 20:55:03.050,540,1.4598318,-0.8879664,-0.6409786,0.0,0.0,0.0
2026-05-10 20:55:03.060,541,1.4094087999999998,-0.9114832133333334,-0.6037359999999999,0.0,0.0,0.0
2026-05-10 20:55:03.070,542,1.1352702,-0.9911977466666667,-0.4309837,0.0,0.0,0.0
2026-05-10 20:55:03.080,543,0.9461468333333333,-1.0578338,-0.33788481,0.0,0.0,0.0
2026-05-10 20:55:03.090,544,0.8949083,-1.0829816,-0.31590214,0.0,0.0,0.0
2026-05-10 20:55:03.100,545,0.8949083,-1.0829816,-0.31590214,0.0,0.0,0.0
2026-05-10 20:55:03.110,546,0.8949083,-1.0829816,-0.31590214,0.0,0.0,0.0
2026-05-10 20:55:03.120,547,0.8949083,-1.0829816,-0.31590214,0.0,0.0,0.0
2026-05-10 20:55:03.130,548,0.8949083,-1.0829816,-0.31590214,0.0,0.0,0.0
2026-05-10 20:55:03.140,549,0.8949083,-1.0829816,-0.31590214,0.0,0.0,0.0
2026-05-10 20:55:03.150,550,0.8949083,-1.0829816,-0.31590214,0.0,0.0,0.0
2026-05-10 20:55:03.160,551,0.8949083,-1.0829816,-0.31590214,0.0,0.0,0.0
2026-05-10 20:55:03.170,552,0.8949083,-1.0829816,-0.31590214,0.0,0.0,0.0
2026-05-10 20:55:03.180,553,0.8949083,-1.0829816,-0.31590214,0.0,0.0,0.0
2026-05-10 20:55:03.190,554,0.5775739333333333,-1.1526299333333334,-0.15192150766666668,0.0,0.0,0.0
2026-05-10 20:55:03.200,555,0.3003058,-1.1620796,-0.012737003000000002,0.0,0.0,0.0
2026-05-10 20:55:03.210,556,0.3003058,-1.1620796,-0.012737003,0.0,0.0,0.0
2026-05-10 20:55:03.220,557,0.055321100000000005,-1.2082874666666665,0.09116717233333334,0.0,0.0,0.0
2026-05-10 20:55:03.230,558,-0.06717125,-1.2313914,0.14311926,0.0,0.0,0.0
2026-05-10 20:55:03.240,559,-0.06717125,-1.2313914,0.14311926,0.0,0.0,0.0
2026-05-10 20:55:03.250,560,-0.07960753999999999,-1.2323445333333334,0.14417430666666667,0.0,0.0,0.0
2026-05-10 20:55:03.260,561,-0.10448012,-1.2342508,0.1462844,0.0,0.0,0.0
2026-05-10 20:55:03.270,562,-0.10448012,-1.2342508,0.1462844,0.0,0.0,0.0
2026-05-10 20:55:03.280,563,-0.10448012,-1.2342508,0.1462844,0.0,0.0,0.0
2026-05-10 20:55:03.290,564,-0.10448012,-1.2342508,0.1462844,0.0,0.0,0.0
2026-05-10 20:55:03.300,565,-0.10448012,-1.2342508,0.1462844,0.0,0.0,0.0
2026-05-10 20:55:03.310,566,-0.10448012,-1.2342508,0.1462844,0.0,0.0,0.0
2026-05-10 20:55:03.320,567,-0.10448012,-1.2342508,0.1462844,0.0,0.0,0.0
2026-05-10 20:55:03.330,568,-0.10448012,-1.2342508,0.1462844,0.0,0.0,0.0
2026-05-10 20:55:03.340,569,-0.16207442000000002,-1.2466208333333333,0.18794087333333334,0.0,0.0,0.0
2026-05-10 20:55:03.350,570,-0.27726302,-1.2713609,0.27125382,0.0,0.0,0.0
2026-05-10 20:55:03.360,571,-0.27726302,-1.2713609,0.27125382,0.0,0.0,0.0
2026-05-10 20:55:03.370,572,-0.27726302,-1.2713609,0.27125382,0.0,0.0,0.0
2026-05-10 20:55:03.380,573,-0.42496943,-1.3235741749999999,0.32561163,0.0,0.0,0.0
2026-05-10 20:55:03.390,574,-0.4742049,-1.3409786,0.3437309,0.0,0.0,0.0
2026-05-10 20:55:03.400,575,-0.573677325,-1.386701075,0.34846715,0.0,0.0,0.0
2026-05-10 20:55:03.410,576,-0.6068348,-1.4019419,0.3500459,0.0,0.0,0.0
2026-05-10 20:55:03.420,577,-0.6068348,-1.4019419,0.3500459,0.0,0.0,0.0
2026-05-10 20:55:03.430,578,-0.6068348,-1.4019419,0.3500459,0.0,0.0,0.0
2026-05-10 20:55:03.440,579,-0.6068348,-1.4019419,0.3500459,0.0,0.0,0.0
2026-05-10 20:55:03.450,580,-0.6068348,-1.4019419,0.3500459,0.0,0.0,0.0
2026-05-10 20:55:03.460,581,-0.6990468666666666,-1.4104331666666665,0.35365443333333335,0.0,0.0,0.0
2026-05-10 20:55:03.470,582,-0.7451529,-1.4146788,0.3554587,0.0,0.0,0.0
2026-05-10 20:55:03.480,583,-0.7451529,-1.4146788,0.3554587,0.0,0.0,0.0
2026-05-10 20:55:03.490,584,-0.7451529,-1.4146788,0.3554587,0.0,0.0,0.0
2026-05-10 20:55:03.500,585,-0.7451529,-1.4146788,0.3554587,0.0,0.0,0.0
2026-05-10 20:55:03.510,586,-0.7451529,-1.4146788,0.3554587,0.0,0.0,0.0
2026-05-10 20:55:03.520,587,-0.7451529,-1.4146788,0.3554587,0.0,0.0,0.0
2026-05-10 20:55:03.530,588,-0.7451529,-1.4146788,0.3554587,0.0,0.0,0.0
2026-05-10 20:55:03.540,589,-0.7451529,-1.4146788,0.3554587,0.0,0.0,0.0
2026-05-10 20:55:03.550,590,-0.8719877625000001,-1.4422821,0.3779357725,0.0,0.0,0.0
2026-05-10 20:55:03.560,591,-0.91426605,-1.4514832,0.38542813,0.0,0.0,0.0
2026-05-10 20:55:03.570,592,-0.91426605,-1.4514832,0.38542813,0.0,0.0,0.0
2026-05-10 20:55:03.580,593,-0.91426605,-1.4514832,0.38542813,0.0,0.0,0.0
2026-05-10 20:55:03.590,594,-0.91426605,-1.4514832,0.38542813,0.0,0.0,0.0
2026-05-10 20:55:03.600,595,-0.91426605,-1.4514832,0.38542813,0.0,0.0,0.0
2026-05-10 20:55:03.610,596,-0.91426605,-1.4514832,0.38542813,0.0,0.0,0.0
2026-05-10 20:55:03.620,597,-0.91426605,-1.4514832,0.38542813,0.0,0.0,0.0
2026-05-10 20:55:03.630,598,-0.91426605,-1.4514832,0.38542813,0.0,0.0,0.0
2026-05-10 20:55:03.640,599,-0.91426605,-1.4514832,0.38542813,0.0,0.0,0.0
2026-05-10 20:55:03.650,600,-1.065489275,-1.4230428,0.665137615,0.0,0.0,0.0
2026-05-10 20:55:03.660,601,-1.1515749,-1.4532110000000003,0.66218656,0.0,0.0,0.0
2026-05-10 20:55:03.670,602,-1.1515749,-1.453211,0.66218656,0.0,0.0,0.0
2026-05-10 20:55:03.680,603,-1.1515749,-1.4532110000000003,0.66218656,0.0,0.0,0.0
2026-05-10 20:55:03.690,604,-1.1515749,-1.4532110000000003,0.66218656,0.0,0.0,0.0
2026-05-10 20:55:03.700,605,-1.1515749,-1.453211,0.66218656,0.0,0.0,0.0
2026-05-10 20:55:03.710,606,-1.1515749,-1.4532110000000003,0.66218656,0.0,0.0,0.0
2026-05-10 20:55:03.720,607,-1.1515749,-1.4532110000000003,0.66218656,0.0,0.0,0.0
2026-05-10 20:55:03.730,608,-1.2303822,-1.3334404,1.2574923,0.0,0.0,0.0
2026-05-10 20:55:03.740,609,-1.2303822,-1.3334404,1.2574923,0.0,0.0,0.0
2026-05-10 20:55:03.750,610,-1.2303822,-1.3334404,1.2574923,0.0,0.0,0.0
2026-05-10 20:55:03.760,611,-1.2303822,-1.3334404,1.2574923,0.0,0.0,0.0
2026-05-10 20:55:03.770,612,-1.2303822,-1.3334404,1.2574923,0.0,0.0,0.0
2026-05-10 20:55:03.780,613,-1.2303822,-1.3334404,1.2574923,0.0,0.0,0.0
2026-05-10 20:55:03.790,614,-1.2303822,-1.3334404,1.2574923,0.0,0.0,0.0
2026-05-10 20:55:03.800,615,-1.2303822,-1.3334404,1.2574923,0.0,0.0,0.0
2026-05-10 20:55:03.810,616,-1.2303822,-1.3334404,1.2574923,0.0,0.0,0.0
2026-05-10 20:55:03.820,617,-1.2303822,-1.3334404,1.2574923,0.0,0.0,0.0
2026-05-10 20:55:03.830,618,-1.2303822,-1.3334404,1.2574923,0.0,0.0,0.0
2026-05-10 20:55:03.840,619,-1.2128797,-1.3221916666666667,1.3509683666666668,0.0,0.0,0.0
2026-05-10 20:55:03.850,620,-1.1778747,-1.2996942,1.5379205,0.0,0.0,0.0
2026-05-10 20:55:03.860,621,-1.1778747,-1.2996942,1.5379205,0.0,0.0,0.0
2026-05-10 20:55:03.870,622,-1.1778747,-1.2996942,1.5379205,0.0,0.0,0.0
2026-05-10 20:55:03.880,623,-1.1778747,-1.2996942,1.5379205,0.0,0.0,0.0
2026-05-10 20:55:03.890,624,-1.1445413666666668,-1.3133537000000002,1.5818552666666665,0.0,0.0,0.0
2026-05-10 20:55:03.900,625,-1.0778747,-1.3406727,1.6697248,0.0,0.0,0.0
2026-05-10 20:55:03.910,626,-1.0778747,-1.3406727,1.6697248,0.0,0.0,0.0
2026-05-10 20:55:03.920,627,-1.0778747,-1.3406727,1.6697248,0.0,0.0,0.0
2026-05-10 20:55:03.930,628,-1.0778747,-1.3406727,1.6697248,0.0,0.0,0.0
2026-05-10 20:55:03.940,629,-1.1376147,-1.3738991,1.5144801,0.0,0.0,0.0
2026-05-10 20:55:03.950,630,-1.363104,-1.3311927,1.2662538,0.0,0.0,0.0
2026-05-10 20:55:03.960,631,-2.530275,-1.0395566,0.2800153,0.0,0.0,0.0
2026-05-10 20:55:03.970,632,-2.530275,-1.0395566,0.2800153,0.0,0.0,0.0
2026-05-10 20:55:03.980,633,-2.530275,-1.0395566,0.2800153,0.0,0.0,0.0
2026-05-10 20:55:03.990,634,-2.530275,-1.0395566,0.2800153,0.0,0.0,0.0
2026-05-10 20:55:04.000,635,-2.6494087333333334,-0.985999,0.11943425333333335,0.0,0.0,0.0
2026-05-10 20:55:04.010,636,-2.7089756,-0.9592202,0.03914373,0.0,0.0,0.0
2026-05-10 20:55:04.020,637,-2.7089756,-0.9592202,0.03914373,0.0,0.0,0.0
2026-05-10 20:55:04.030,638,-2.7089756,-0.9592202,0.03914373,0.0,0.0,0.0
2026-05-10 20:55:04.040,639,-2.7089756,-0.9592202,0.03914373,0.0,0.0,0.0
2026-05-10 20:55:04.050,640,-2.7107390666666666,-0.9297604666666667,0.011824668666666668,0.0,0.0,0.0
2026-05-10 20:55:04.060,641,-2.714266,-0.870841,-0.042813454,0.0,0.0,0.0
2026-05-10 20:55:04.070,642,-2.714266,-0.870841,-0.042813454,0.0,0.0,0.0
2026-05-10 20:55:04.080,643,-2.714266,-0.870841,-0.042813454,0.0,0.0,0.0
2026-05-10 20:55:04.090,644,-2.714266,-0.870841,-0.042813454,0.0,0.0,0.0
2026-05-10 20:55:04.100,645,-2.714266,-0.870841,-0.042813454,0.0,0.0,0.0
2026-05-10 20:55:04.110,646,-2.714266,-0.870841,-0.042813454,0.0,0.0,0.0
2026-05-10 20:55:04.120,647,-2.714266,-0.870841,-0.042813454,0.0,0.0,0.0
2026-05-10 20:55:04.130,648,-2.714266,-0.870841,-0.042813454,0.0,0.0,0.0
2026-05-10 20:55:04.140,649,-2.714266,-0.870841,-0.042813454,0.0,0.0,0.0
2026-05-10 20:55:04.150,650,-2.714266,-0.870841,-0.042813454,0.0,0.0,0.0
2026-05-10 20:55:04.160,651,-2.632686,-0.8582365,0.04841998066666667,0.0,0.0,0.0
2026-05-10 20:55:04.170,652,-2.459026533333333,-0.8338429833333333,0.2614016333333333,0.0,0.0,0.0
2026-05-10 20:55:04.180,653,-2.4380276,-0.83547395,0.3224312,0.0,0.0,0.0
2026-05-10 20:55:04.190,654,-2.4380276,-0.83547395,0.3224312,0.0,0.0,0.0
2026-05-10 20:55:04.200,655,-2.4380276,-0.83547395,0.3224312,0.0,0.0,0.0
2026-05-10 20:55:04.210,656,-2.4380276,-0.83547395,0.3224312,0.0,0.0,0.0
2026-05-10 20:55:04.220,657,-2.4380276,-0.83547395,0.3224312,0.0,0.0,0.0
2026-05-10 20:55:04.230,658,-2.4380276,-0.83547395,0.3224312,0.0,0.0,0.0
2026-05-10 20:55:04.240,659,-2.4380276,-0.83547395,0.3224312,0.0,0.0,0.0
2026-05-10 20:55:04.250,660,-2.4380276,-0.83547395,0.3224312,0.0,0.0,0.0
2026-05-10 20:55:04.260,661,-2.4380276,-0.83547395,0.3224312,0.0,0.0,0.0
2026-05-10 20:55:04.270,662,-2.4380276,-0.83547395,0.3224312,0.0,0.0,0.0
2026-05-10 20:55:04.280,663,-2.4380276,-0.83547395,0.3224312,0.0,0.0,0.0
2026-05-10 20:55:04.290,664,-2.4380276,-0.83547395,0.3224312,0.0,0.0,0.0
2026-05-10 20:55:04.300,665,-2.4380276,-0.83547395,0.3224312,0.0,0.0,0.0
2026-05-10 20:55:04.310,666,-2.3532160666666666,-0.8187563633333333,0.7070692666666667,0.0,0.0,0.0
2026-05-10 20:55:04.320,667,-2.3108103,-0.81039757,0.8993883,0.0,0.0,0.0
2026-05-10 20:55:04.330,668,-2.3108103,-0.81039757,0.8993883,0.0,0.0,0.0
2026-05-10 20:55:04.340,669,-2.3108103,-0.81039757,0.8993883,0.0,0.0,0.0
2026-05-10 20:55:04.350,670,-2.3092278,-0.792912835,1.0000993500000002,0.0,0.0,0.0
2026-05-10 20:55:04.360,671,-2.3076453,-0.7754281,1.1008104,0.0,0.0,0.0
2026-05-10 20:55:04.370,672,-2.3076453,-0.7754281,1.1008104,0.0,0.0,0.0
2026-05-10 20:55:04.380,673,-2.3076453,-0.7754281,1.1008104,0.0,0.0,0.0
2026-05-10 20:55:04.390,674,-2.3076453,-0.7754281,1.1008104,0.0,0.0,0.0
2026-05-10 20:55:04.400,675,-2.3408409666666667,-0.7480071,1.1239857666666666,0.0,0.0,0.0
2026-05-10 20:55:04.410,676,-2.4072323,-0.6931651,1.1703365,0.0,0.0,0.0
2026-05-10 20:55:04.420,677,-2.4072323,-0.6931651,1.1703365,0.0,0.0,0.0
2026-05-10 20:55:04.430,678,-2.4072323,-0.6931651,1.1703365,0.0,0.0,0.0
2026-05-10 20:55:04.440,679,-2.564881475,-0.6025688124999999,1.1368502,0.0,0.0,0.0
2026-05-10 20:55:04.450,680,-2.6174312,-0.57237005,1.1256881,0.0,0.0,0.0
2026-05-10 20:55:04.460,681,-2.6174312,-0.57237005,1.1256881,0.0,0.0,0.0
2026-05-10 20:55:04.470,682,-2.6174312,-0.57237005,1.1256881,0.0,0.0,0.0
2026-05-10 20:55:04.480,683,-2.6174312,-0.57237005,1.1256881,0.0,0.0,0.0
2026-05-10 20:55:04.490,684,-2.6174312,-0.57237005,1.1256881,0.0,0.0,0.0
2026-05-10 20:55:04.500,685,-2.737986733333333,-0.49282876666666664,1.02806832,0.0,0.0,0.0
2026-05-10 20:55:04.510,686,-2.9790978,-0.3337462,0.83282876,0.0,0.0,0.0
2026-05-10 20:55:04.520,687,-2.9790978,-0.3337462,0.83282876,0.0,0.0,0.0
2026-05-10 20:55:04.530,688,-2.8583028,-0.25188074,0.19796636999999997,0.0,0.0,0.0
2026-05-10 20:55:04.540,689,-2.8583028,-0.25188074,0.19796637,0.0,0.0,0.0
2026-05-10 20:55:04.550,690,-2.8583028,-0.25188074,0.19796636999999997,0.0,0.0,0.0
2026-05-10 20:55:04.560,691,-2.8583028,-0.25188074,0.19796636999999997,0.0,0.0,0.0
2026-05-10 20:55:04.570,692,-2.8583028,-0.25188074,0.19796637,0.0,0.0,0.0
2026-05-10 20:55:04.580,693,-2.567584,-0.2567737,-0.18114679999999997,0.0,0.0,0.0
2026-05-10 20:55:04.590,694,-2.567584,-0.2567737,-0.1811468,0.0,0.0,0.0
2026-05-10 20:55:04.600,695,-2.567584,-0.2567737,-0.18114679999999997,0.0,0.0,0.0
2026-05-10 20:55:04.610,696,-2.567584,-0.2567737,-0.18114679999999997,0.0,0.0,0.0
2026-05-10 20:55:04.620,697,-2.567584,-0.2567737,-0.1811468,0.0,0.0,0.0
2026-05-10 20:55:04.630,698,-2.567584,-0.2567737,-0.18114679999999997,0.0,0.0,0.0
2026-05-10 20:55:04.640,699,-2.567584,-0.2567737,-0.1811468,0.0,0.0,0.0
2026-05-10 20:55:04.650,700,-2.567584,-0.2567737,-0.18114679999999997,0.0,0.0,0.0
2026-05-10 20:55:04.660,701,-2.567584,-0.2567737,-0.18114679999999997,0.0,0.0,0.0
2026-05-10 20:55:04.670,702,-2.4057568,-0.27548165,-0.358363925,0.0,0.0,0.0
2026-05-10 20:55:04.680,703,-2.2439296,-0.2941896,-0.53558105,0.0,0.0,0.0
2026-05-10 20:55:04.690,704,-2.2439296,-0.2941896,-0.53558105,0.0,0.0,0.0
2026-05-10 20:55:04.700,705,-2.2439296,-0.2941896,-0.53558105,0.0,0.0,0.0
2026-05-10 20:55:04.710,706,-2.2439296,-0.2941896,-0.53558105,0.0,0.0,0.0
2026-05-10 20:55:04.720,707,-2.2439296,-0.2941896,-0.53558105,0.0,0.0,0.0
2026-05-10 20:55:04.730,708,-2.2439296,-0.2941896,-0.53558105,0.0,0.0,0.0
2026-05-10 20:55:04.740,709,-2.2439296,-0.2941896,-0.53558105,0.0,0.0,0.0
2026-05-10 20:55:04.750,710,-2.2439296,-0.2941896,-0.53558105,0.0,0.0,0.0
2026-05-10 20:55:04.760,711,-2.0023394,-0.365948,-0.7743119000000002,0.0,0.0,0.0
2026-05-10 20:55:04.770,712,-2.0023394,-0.365948,-0.7743119000000002,0.0,0.0,0.0
2026-05-10 20:55:04.780,713,-2.0023394,-0.365948,-0.7743119,0.0,0.0,0.0
2026-05-10 20:55:04.790,714,-2.0023394,-0.365948,-0.7743119000000002,0.0,0.0,0.0
2026-05-10 20:55:04.800,715,-2.0023394,-0.365948,-0.7743119000000002,0.0,0.0,0.0
2026-05-10 20:55:04.810,716,-1.8236544,-0.7225229,-0.77278286,0.0,0.0,0.0
2026-05-10 20:55:04.820,717,-1.8236544,-0.7225229,-0.77278286,0.0,0.0,0.0
2026-05-10 20:55:04.830,718,-1.8236544,-0.7225229,-0.77278286,0.0,0.0,0.0
2026-05-10 20:55:04.840,719,-1.796636,-0.75178903,-0.48215598,0.0,0.0,0.0
2026-05-10 20:55:04.850,720,-1.7966360000000001,-0.75178903,-0.48215598,0.0,0.0,0.0
2026-05-10 20:55:04.860,721,-1.796636,-0.75178903,-0.48215598,0.0,0.0,0.0
2026-05-10 20:55:04.870,722,-1.7966360000000001,-0.75178903,-0.48215598,0.0,0.0,0.0
2026-05-10 20:55:04.880,723,-1.7966360000000001,-0.75178903,-0.48215598,0.0,0.0,0.0
2026-05-10 20:55:04.890,724,-1.796636,-0.75178903,-0.48215598,0.0,0.0,0.0
2026-05-10 20:55:04.900,725,-1.7966360000000001,-0.75178903,-0.48215598,0.0,0.0,0.0
2026-05-10 20:55:04.910,726,-1.8676502666666668,-0.6851529533333333,-0.3466819683333333,0.0,0.0,0.0
2026-05-10 20:55:04.920,727,-2.0096788,-0.5518808,-0.075733945,0.0,0.0,0.0
2026-05-10 20:55:04.930,728,-2.0096788,-0.5518808,-0.075733945,0.0,0.0,0.0
2026-05-10 20:55:04.940,729,-2.0096788,-0.5518808,-0.075733945,0.0,0.0,0.0
2026-05-10 20:55:04.950,730,-2.083990725,-0.50702987,0.04944189125,0.0,0.0,0.0
2026-05-10 20:55:04.960,731,-2.3069265,-0.37247708000000007,0.4249694,0.0,0.0,0.0
2026-05-10 20:55:04.970,732,-2.3069265,-0.37247708000000007,0.4249694,0.0,0.0,0.0
2026-05-10 20:55:04.980,733,-2.4672782499999997,-0.30769879,0.58899082,0.0,0.0,0.0
2026-05-10 20:55:04.990,734,-2.4116209,-0.13230887,0.7332263,0.0,0.0,0.0
2026-05-10 20:55:05.000,735,-2.2364717499999998,-0.12680427875,0.533914385,0.0,0.0,0.0
2026-05-10 20:55:05.010,736,-1.9525993999999998,-0.10795107,0.13792048,0.0,0.0,0.0
2026-05-10 20:55:05.020,737,-1.9525993999999998,-0.10795107,0.13792048,0.0,0.0,0.0
2026-05-10 20:55:05.030,738,-1.9525994,-0.10795107,0.13792048,0.0,0.0,0.0
2026-05-10 20:55:05.040,739,-1.9525993999999998,-0.10795107,0.13792048,0.0,0.0,0.0
2026-05-10 20:55:05.050,740,-1.9525993999999998,-0.10795107,0.13792048,0.0,0.0,0.0
2026-05-10 20:55:05.060,741,-1.9525993999999998,-0.10795107,0.13792048,0.0,0.0,0.0
2026-05-10 20:55:05.070,742,-1.9525993999999998,-0.10795107,0.13792048,0.0,0.0,0.0
2026-05-10 20:55:05.080,743,-1.9525994,-0.10795107,0.13792048,0.0,0.0,0.0
2026-05-10 20:55:05.090,744,-1.9525993999999998,-0.10795107,0.13792048,0.0,0.0,0.0
2026-05-10 20:55:05.100,745,-1.8244648,-0.09622324,-0.091850154,0.0,0.0,0.0
2026-05-10 20:55:05.110,746,-1.8468909333333334,-0.08678389333333332,-0.291646278,0.0,0.0,0.0
2026-05-10 20:55:05.120,747,-1.9522935333333333,-0.05827217333333332,-0.3912691133333333,0.0,0.0,0.0
2026-05-10 20:55:05.130,748,-1.9993883,-0.04637615,-0.3911315,0.0,0.0,0.0
2026-05-10 20:55:05.140,749,-1.9993883,-0.04637615,-0.3911315,0.0,0.0,0.0
2026-05-10 20:55:05.150,750,-1.9993883,-0.04637615,-0.3911315,0.0,0.0,0.0
2026-05-10 20:55:05.160,751,-2.2300763,-0.022522936000000004,-0.06402141,0.0,0.0,0.0
2026-05-10 20:55:05.170,752,-2.2300763,-0.022522936000000004,-0.06402141,0.0,0.0,0.0
2026-05-10 20:55:05.180,753,-2.2300763,-0.022522936,-0.06402141,0.0,0.0,0.0
2026-05-10 20:55:05.190,754,-2.2300763,-0.022522936000000004,-0.06402141,0.0,0.0,0.0
2026-05-10 20:55:05.200,755,-2.2300763,-0.022522936000000004,-0.06402141,0.0,0.0,0.0
2026-05-10 20:55:05.210,756,-2.2300763,-0.022522936000000004,-0.06402141,0.0,0.0,0.0
2026-05-10 20:55:05.220,757,-2.2300763,-0.022522936000000004,-0.06402141,0.0,0.0,0.0
2026-05-10 20:55:05.230,758,-2.3267124,0.013562691,0.13139144,0.0,0.0,0.0
2026-05-10 20:55:05.240,759,-2.3267124,0.013562691,0.13139144,0.0,0.0,0.0
2026-05-10 20:55:05.250,760,-2.4058104,0.030382263,0.32538226,0.0,0.0,0.0
2026-05-10 20:55:05.260,761,-2.4058104,0.030382263000000003,0.32538226,0.0,0.0,0.0
2026-05-10 20:55:05.270,762,-2.4058104,0.030382263,0.32538226,0.0,0.0,0.0
2026-05-10 20:55:05.280,763,-2.4058104,0.030382263000000003,0.32538226,0.0,0.0,0.0
2026-05-10 20:55:05.290,764,-2.4058104,0.030382263000000003,0.32538226,0.0,0.0,0.0
2026-05-10 20:55:05.300,765,-2.4058104,0.030382263,0.32538226,0.0,0.0,0.0
2026-05-10 20:55:05.310,766,-2.4058104,0.030382263000000003,0.32538226,0.0,0.0,0.0
2026-05-10 20:55:05.320,767,-2.4058104,0.030382263,0.32538226,0.0,0.0,0.0
2026-05-10 20:55:05.330,768,-2.4058104,0.030382263,0.32538226,0.0,0.0,0.0
2026-05-10 20:55:05.340,769,-2.4058104,0.030382263000000003,0.32538226,0.0,0.0,0.0
2026-05-10 20:55:05.350,770,-2.4224312,0.036896024,0.54362386,0.0,0.0,0.0
2026-05-10 20:55:05.360,771,-2.4224312,0.036896024,0.54362386,0.0,0.0,0.0
2026-05-10 20:55:05.370,772,-2.4224312,0.036896024,0.54362386,0.0,0.0,0.0
2026-05-10 20:55:05.380,773,-2.4224312,0.036896024,0.54362386,0.0,0.0,0.0
2026-05-10 20:55:05.390,774,-2.421208,0.018149847,0.7134557,0.0,0.0,0.0
2026-05-10 20:55:05.400,775,-2.421208,0.018149847,0.7134557,0.0,0.0,0.0
2026-05-10 20:55:05.410,776,-2.421208,0.018149847,0.7134557,0.0,0.0,0.0
2026-05-10 20:55:05.420,777,-2.421208,0.018149847,0.7134557,0.0,0.0,0.0
2026-05-10 20:55:05.430,778,-2.421208,0.018149847,0.7134557,0.0,0.0,0.0
2026-05-10 20:55:05.440,779,-2.421208,0.018149847,0.7134557,0.0,0.0,0.0
2026-05-10 20:55:05.450,780,-2.421208,0.018149847,0.7134557,0.0,0.0,0.0
2026-05-10 20:55:05.460,781,-2.421208,0.018149847,0.7134557,0.0,0.0,0.0
2026-05-10 20:55:05.470,782,-2.421208,0.018149847,0.7134557,0.0,0.0,0.0
2026-05-10 20:55:05.480,783,-2.421208,0.018149847,0.7134557,0.0,0.0,0.0
2026-05-10 20:55:05.490,784,-2.421208,0.018149847,0.7134557,0.0,0.0,0.0
2026-05-10 20:55:05.500,785,-2.334052,0.0088685015,0.75515294,0.0,0.0,0.0
2026-05-10 20:55:05.510,786,-2.334052,0.0088685015,0.75515294,0.0,0.0,0.0
2026-05-10 20:55:05.520,787,-2.334052,0.0088685015,0.75515294,0.0,0.0,0.0
2026-05-10 20:55:05.530,788,-2.334052,0.0088685015,0.75515294,0.0,0.0,0.0
2026-05-10 20:55:05.540,789,-2.334052,0.0088685015,0.75515294,0.0,0.0,0.0
2026-05-10 20:55:05.550,790,-2.334052,0.0088685015,0.75515294,0.0,0.0,0.0
2026-05-10 20:55:05.560,791,-2.334052,0.0088685015,0.75515294,0.0,0.0,0.0
2026-05-10 20:55:05.570,792,-2.334052,0.0088685015,0.75515294,0.0,0.0,0.0
2026-05-10 20:55:05.580,793,-2.1854281,-0.05035168,0.78735477,0.0,0.0,0.0
2026-05-10 20:55:05.590,794,-2.1854281,-0.05035168,0.78735477,0.0,0.0,0.0
2026-05-10 20:55:05.600,795,-2.1854281,-0.05035168,0.78735477,0.0,0.0,0.0
2026-05-10 20:55:05.610,796,-2.0535830333333336,-0.09445973333333334,0.7818501633333333,0.0,0.0,0.0
2026-05-10 20:55:05.620,797,-1.9876604999999998,-0.11651375999999998,0.7790978599999999,0.0,0.0,0.0
2026-05-10 20:55:05.630,798,-1.9876605,-0.11651376,0.77909786,0.0,0.0,0.0
2026-05-10 20:55:05.640,799,-1.9822987,-0.12168195999999999,0.7724414200000002,0.0,0.0,0.0
2026-05-10 20:55:05.650,800,-1.9796178,-0.12426606,0.7691132,0.0,0.0,0.0
2026-05-10 20:55:05.660,801,-1.9796178,-0.12426606,0.7691132,0.0,0.0,0.0
2026-05-10 20:55:05.670,802,-1.9796178,-0.12426606,0.7691132,0.0,0.0,0.0
2026-05-10 20:55:05.680,803,-1.9796178,-0.12426606,0.7691132,0.0,0.0,0.0
2026-05-10 20:55:05.690,804,-1.9796178,-0.12426606,0.7691132,0.0,0.0,0.0
2026-05-10 20:55:05.700,805,-1.9796178,-0.12426606,0.7691132,0.0,0.0,0.0
2026-05-10 20:55:05.710,806,-1.9796178,-0.12426606,0.7691132,0.0,0.0,0.0
2026-05-10 20:55:05.720,807,-1.9796178,-0.12426606,0.7691132,0.0,0.0,0.0
2026-05-10 20:55:05.730,808,-1.9796178,-0.12426606,0.7691132,0.0,0.0,0.0
2026-05-10 20:55:05.740,809,-1.9796178,-0.12426606,0.7691132,0.0,0.0,0.0
2026-05-10 20:55:05.750,810,-1.9796178,-0.12426606,0.7691132,0.0,0.0,0.0
2026-05-10 20:55:05.760,811,-1.9796178,-0.12426606,0.7691132,0.0,0.0,0.0
2026-05-10 20:55:05.770,812,-1.9796178,-0.12426606,0.7691132,0.0,0.0,0.0
2026-05-10 20:55:05.780,813,-2.0521865,-0.12059632999999999,0.76666665,0.0,0.0,0.0
2026-05-10 20:55:05.790,814,-2.095741575,-0.11200688,0.7751528875,0.0,0.0,0.0
2026-05-10 20:55:05.800,815,-2.2264068,-0.08623853,0.8006116,0.0,0.0,0.0
2026-05-10 20:55:05.810,816,-2.2264068,-0.08623853,0.8006116,0.0,0.0,0.0
2026-05-10 20:55:05.820,817,-2.2264068,-0.08623853,0.8006116,0.0,0.0,0.0
2026-05-10 20:55:05.830,818,-2.2264068,-0.08623853,0.8006116,0.0,0.0,0.0
2026-05-10 20:55:05.840,819,-2.2264068,-0.08623853,0.8006116,0.0,0.0,0.0
2026-05-10 20:55:05.850,820,-2.2852243333333333,-0.08729357666666666,0.8381905999999999,0.0,0.0,0.0
2026-05-10 20:55:05.860,821,-2.5031652,-0.09113149999999999,0.9858257,0.0,0.0,0.0
2026-05-10 20:55:05.870,822,-2.5031652,-0.0911315,0.9858257,0.0,0.0,0.0
2026-05-10 20:55:05.880,823,-2.5031652,-0.09113149999999999,0.9858257,0.0,0.0,0.0
2026-05-10 20:55:05.890,824,-2.6793540250000003,-0.2033868525,0.8177408500000001,0.0,0.0,0.0
2026-05-10 20:55:05.900,825,-2.6766515,-0.2756727766666667,0.5818909200000001,0.0,0.0,0.0
2026-05-10 20:55:05.910,826,-2.7886848,-0.28704894,0.46055046000000005,0.0,0.0,0.0
2026-05-10 20:55:05.920,827,-2.793302666666667,-0.3959174466666667,0.27087666,0.0,0.0,0.0
2026-05-10 20:55:05.930,828,-2.7956115999999995,-0.45035169999999997,0.17603976,0.0,0.0,0.0
2026-05-10 20:55:05.940,829,-2.5092711,-0.55610094,-0.026636083333333335,0.0,0.0,0.0
2026-05-10 20:55:05.950,830,-2.3940825,-0.60091746,-0.08307339,0.0,0.0,0.0
2026-05-10 20:55:05.960,831,-2.3940825,-0.60091746,-0.08307339,0.0,0.0,0.0
2026-05-10 20:55:05.970,832,-2.3940825,-0.60091746,-0.08307339,0.0,0.0,0.0
2026-05-10 20:55:05.980,833,-2.3940825,-0.60091746,-0.08307339,0.0,0.0,0.0
2026-05-10 20:55:05.990,834,-2.3940825,-0.60091746,-0.08307339,0.0,0.0,0.0
2026-05-10 20:55:06.000,835,-2.3940825,-0.60091746,-0.08307339,0.0,0.0,0.0
2026-05-10 20:55:06.010,836,-2.3940825,-0.60091746,-0.08307339,0.0,0.0,0.0
2026-05-10 20:55:06.020,837,-2.3940825,-0.60091746,-0.08307339,0.0,0.0,0.0
2026-05-10 20:55:06.030,838,-2.369413833333333,-0.6002038933333333,-0.11189092666666667,0.0,0.0,0.0
2026-05-10 20:55:06.040,839,-2.3200765,-0.59877676,-0.16952599999999998,0.0,0.0,0.0
2026-05-10 20:55:06.050,840,-2.3200765,-0.59877676,-0.16952599999999998,0.0,0.0,0.0
2026-05-10 20:55:06.060,841,-2.2535167,-0.595107,-0.2551529,0.0,0.0,0.0
2026-05-10 20:55:06.070,842,-2.2535167,-0.595107,-0.2551529,0.0,0.0,0.0
2026-05-10 20:55:06.080,843,-2.2535167,-0.595107,-0.2551529,0.0,0.0,0.0
2026-05-10 20:55:06.090,844,-2.2535167,-0.595107,-0.2551529,0.0,0.0,0.0
2026-05-10 20:55:06.100,845,-2.2535167,-0.595107,-0.2551529,0.0,0.0,0.0
2026-05-10 20:55:06.110,846,-2.214679,-0.6053058,-0.2551529,0.0,0.0,0.0
2026-05-10 20:55:06.120,847,-2.214679,-0.6053058,-0.2551529,0.0,0.0,0.0
2026-05-10 20:55:06.130,848,-2.214679,-0.6053058,-0.2551529,0.0,0.0,0.0
2026-05-10 20:55:06.140,849,-2.214679,-0.6053058,-0.2551529,0.0,0.0,0.0
2026-05-10 20:55:06.150,850,-2.214679,-0.6053058,-0.2551529,0.0,0.0,0.0
2026-05-10 20:55:06.160,851,-2.214679,-0.6053058,-0.2551529,0.0,0.0,0.0
2026-05-10 20:55:06.170,852,-2.1715597333333334,-0.61685525,-0.18851681666666667,0.0,0.0,0.0
2026-05-10 20:55:06.180,853,-2.0853212,-0.63995415,-0.05524465,0.0,0.0,0.0
2026-05-10 20:55:06.190,854,-2.0853212,-0.63995415,-0.05524465,0.0,0.0,0.0
2026-05-10 20:55:06.200,855,-2.0853212,-0.63995415,-0.05524465,0.0,0.0,0.0
2026-05-10 20:55:06.210,856,-2.0853212,-0.63995415,-0.05524465,0.0,0.0,0.0
2026-05-10 20:55:06.220,857,-2.0853212,-0.63995415,-0.05524465,0.0,0.0,0.0
2026-05-10 20:55:06.230,858,-2.0853212,-0.63995415,-0.05524465,0.0,0.0,0.0
2026-05-10 20:55:06.240,859,-2.0853212,-0.63995415,-0.05524465,0.0,0.0,0.0
2026-05-10 20:55:06.250,860,-2.0853212,-0.63995415,-0.05524465,0.0,0.0,0.0
2026-05-10 20:55:06.260,861,-2.0538225,-0.6016361,0.12619266,0.0,0.0,0.0
2026-05-10 20:55:06.270,862,-2.0538225,-0.6016361,0.12619266,0.0,0.0,0.0
2026-05-10 20:55:06.280,863,-2.0800509666666667,-0.5749898133333334,0.24287972,0.0,0.0,0.0
2026-05-10 20:55:06.290,864,-2.0931652,-0.56166667,0.30122325,0.0,0.0,0.0
2026-05-10 20:55:06.300,865,-2.1597402,-0.56166667,0.55168194,0.0,0.0,0.0
2026-05-10 20:55:06.310,866,-2.1597402,-0.56166667,0.55168194,0.0,0.0,0.0
2026-05-10 20:55:06.320,867,-2.1597402,-0.56166667,0.55168194,0.0,0.0,0.0
2026-05-10 20:55:06.330,868,-2.1597402,-0.56166667,0.55168194,0.0,0.0,0.0
2026-05-10 20:55:06.340,869,-2.1597402,-0.56166667,0.55168194,0.0,0.0,0.0
2026-05-10 20:55:06.350,870,-2.1729206333333333,-0.5735270133333333,0.61488277,0.0,0.0,0.0
2026-05-10 20:55:06.360,871,-2.1992815,-0.5972477,0.74128443,0.0,0.0,0.0
2026-05-10 20:55:06.370,872,-2.1543680333333337,-0.64074412,0.8072069433333334,0.0,0.0,0.0
2026-05-10 20:55:06.380,873,-2.1319113,-0.66249233,0.8401682,0.0,0.0,0.0
2026-05-10 20:55:06.390,874,-2.1319113,-0.66249233,0.8401682,0.0,0.0,0.0
2026-05-10 20:55:06.400,875,-2.1319113,-0.66249233,0.8401682,0.0,0.0,0.0
2026-05-10 20:55:06.410,876,-2.1319113,-0.66249233,0.8401682,0.0,0.0,0.0
2026-05-10 20:55:06.420,877,-2.1319113,-0.66249233,0.8401682,0.0,0.0,0.0
2026-05-10 20:55:06.430,878,-2.1319113,-0.66249233,0.8401682,0.0,0.0,0.0
2026-05-10 20:55:06.440,879,-2.1319113,-0.66249233,0.8401682,0.0,0.0,0.0
2026-05-10 20:55:06.450,880,-2.1319113,-0.66249233,0.8401682,0.0,0.0,0.0
2026-05-10 20:55:06.460,881,-2.1319113,-0.66249233,0.8401682,0.0,0.0,0.0
2026-05-10 20:55:06.470,882,-2.103843,-0.6735320866666666,0.8441437333333334,0.0,0.0,0.0
2026-05-10 20:55:06.480,883,-2.0477064,-0.6956116,0.8520948,0.0,0.0,0.0
2026-05-10 20:55:06.490,884,-2.0477064,-0.6956116,0.8520948,0.0,0.0,0.0
2026-05-10 20:55:06.500,885,-2.0477064,-0.6956116,0.8520948,0.0,0.0,0.0
2026-05-10 20:55:06.510,886,-2.0477064,-0.6956116,0.8520948,0.0,0.0,0.0
2026-05-10 20:55:06.520,887,-2.0477064,-0.6956116,0.8520948,0.0,0.0,0.0
2026-05-10 20:55:06.530,888,-2.0477064,-0.6956116,0.8520948,0.0,0.0,0.0
2026-05-10 20:55:06.540,889,-2.0477064,-0.6956116,0.8520948,0.0,0.0,0.0
2026-05-10 20:55:06.550,890,-2.0477064,-0.6956116,0.8520948,0.0,0.0,0.0
2026-05-10 20:55:06.560,891,-2.0477064,-0.6956116,0.8520948,0.0,0.0,0.0
2026-05-10 20:55:06.570,892,-2.0477064,-0.6956116,0.8520948,0.0,0.0,0.0
2026-05-10 20:55:06.580,893,-2.0477064,-0.6956116,0.8520948,0.0,0.0,0.0
2026-05-10 20:55:06.590,894,-2.0477064,-0.6956116,0.8520948,0.0,0.0,0.0
2026-05-10 20:55:06.600,895,-2.0477064,-0.6956116,0.8520948,0.0,0.0,0.0
2026-05-10 20:55:06.610,896,-2.0477064,-0.6956116,0.8520948,0.0,0.0,0.0
2026-05-10 20:55:06.620,897,-2.0477064,-0.6956116,0.8520948,0.0,0.0,0.0
2026-05-10 20:55:06.630,898,-2.0120948,-0.7088990666666666,0.8549490333333334,0.0,0.0,0.0
2026-05-10 20:55:06.640,899,-1.9408716000000001,-0.735474,0.8606575,0.0,0.0,0.0
2026-05-10 20:55:06.650,900,-1.9408716,-0.735474,0.8606575,0.0,0.0,0.0
2026-05-10 20:55:06.660,901,-1.889872633333333,-0.7415545433333333,0.8613710499999999,0.0,0.0,0.0
2026-05-10 20:55:06.670,902,-1.7878747,-0.75371563,0.86279815,0.0,0.0,0.0
2026-05-10 20:55:06.680,903,-1.7878747,-0.75371563,0.86279815,0.0,0.0,0.0
2026-05-10 20:55:06.690,904,-1.75026,-0.7575586400000001,0.8508358766666667,0.0,0.0,0.0
2026-05-10 20:55:06.700,905,-1.6750306000000001,-0.76524466,0.82691133,0.0,0.0,0.0
2026-05-10 20:55:06.710,906,-1.6750306,-0.76524466,0.82691133,0.0,0.0,0.0
2026-05-10 20:55:06.720,907,-1.6093833,-0.7649031733333334,0.76126402,0.0,0.0,0.0
2026-05-10 20:55:06.730,908,-1.4780887,-0.7642202,0.6299694,0.0,0.0,0.0
2026-05-10 20:55:06.740,909,-1.4780887,-0.7642202,0.6299694,0.0,0.0,0.0
2026-05-10 20:55:06.750,910,-1.4780887,-0.7642202,0.6299694,0.0,0.0,0.0
2026-05-10 20:55:06.760,911,-1.3626605999999999,-0.75582568,0.42860857333333335,0.0,0.0,0.0
2026-05-10 20:55:06.770,912,-1.3368043,-0.75810397,0.38980123,0.0,0.0,0.0
2026-05-10 20:55:06.780,913,-1.3368043,-0.75810397,0.38980123,0.0,0.0,0.0
2026-05-10 20:55:06.790,914,-1.3368043,-0.75810397,0.38980123,0.0,0.0,0.0
2026-05-10 20:55:06.800,915,-1.3368043,-0.75810397,0.38980123,0.0,0.0,0.0
2026-05-10 20:55:06.810,916,-1.0973548,-0.6954129,0.23750764,0.0,0.0,0.0
2026-05-10 20:55:06.820,917,-1.0973548,-0.6954129,0.23750764,0.0,0.0,0.0
2026-05-10 20:55:06.830,918,-1.0973548,-0.6954129,0.23750764,0.0,0.0,0.0
2026-05-10 20:55:06.840,919,-1.0973548,-0.6954129,0.23750764,0.0,0.0,0.0
2026-05-10 20:55:06.850,920,-0.9846025,-0.68103975,0.24220183,0.0,0.0,0.0
2026-05-10 20:55:06.860,921,-0.8985066600000001,-0.6745158233333334,0.3640468766666667,0.0,0.0,0.0
2026-05-10 20:55:06.870,922,-0.85545874,-0.6712538599999999,0.4249694,0.0,0.0,0.0
2026-05-10 20:55:06.880,923,-0.8186544000000001,-0.66074926,0.5130428,0.0,0.0,0.0
2026-05-10 20:55:06.890,924,-0.8186544,-0.66074926,0.5130428,0.0,0.0,0.0
2026-05-10 20:55:06.900,925,-0.8186544000000001,-0.66074926,0.5130428,0.0,0.0,0.0
2026-05-10 20:55:06.910,926,-0.8227319333333334,-0.68209482,0.6234098,0.0,0.0,0.0
2026-05-10 20:55:06.920,927,-0.8247706999999999,-0.6927676000000001,0.6785932999999998,0.0,0.0,0.0
2026-05-10 20:55:06.930,928,-0.8247706999999999,-0.6927676000000001,0.6785932999999998,0.0,0.0,0.0
2026-05-10 20:55:06.940,929,-0.8247706999999999,-0.6927676000000001,0.6785932999999998,0.0,0.0,0.0
2026-05-10 20:55:06.950,930,-0.8247706999999999,-0.6927676000000001,0.6785932999999998,0.0,0.0,0.0
2026-05-10 20:55:06.960,931,-0.8247706999999999,-0.6927676000000001,0.6785932999999998,0.0,0.0,0.0
2026-05-10 20:55:06.970,932,-0.8247706999999999,-0.6927676000000001,0.6785932999999998,0.0,0.0,0.0
2026-05-10 20:55:06.980,933,-0.8247706999999999,-0.6927676000000001,0.6785932999999998,0.0,0.0,0.0
2026-05-10 20:55:06.990,934,-0.8247706999999999,-0.6927676000000001,0.6785932999999998,0.0,0.0,0.0
2026-05-10 20:55:07.000,935,-0.8247706999999999,-0.6927676000000001,0.6785932999999998,0.0,0.0,0.0
2026-05-10 20:55:07.010,936,-0.8247707,-0.6927676,0.6785933,0.0,0.0,0.0
2026-05-10 20:55:07.020,937,-0.8247706999999999,-0.6927676000000001,0.6785932999999998,0.0,0.0,0.0
2026-05-10 20:55:07.030,938,-0.8247706999999999,-0.6927676000000001,0.6785932999999998,0.0,0.0,0.0
2026-05-10 20:55:07.040,939,-0.75358312,-0.7178083666666667,0.6509327433333333,0.0,0.0,0.0
2026-05-10 20:55:07.050,940,-0.61120796,-0.7678899,0.59561163,0.0,0.0,0.0
2026-05-10 20:55:07.060,941,-0.4537156,-0.7785933000000002,0.5137615,0.0,0.0,0.0
2026-05-10 20:55:07.070,942,-0.4537156,-0.7785933000000002,0.5137615,0.0,0.0,0.0
2026-05-10 20:55:07.080,943,-0.39856779,-0.78087159,0.4876656666666667,0.0,0.0,0.0
2026-05-10 20:55:07.090,944,-0.28827217,-0.78542817,0.43547399999999997,0.0,0.0,0.0
2026-05-10 20:55:07.100,945,-0.28827217,-0.78542817,0.43547399999999997,0.0,0.0,0.0
2026-05-10 20:55:07.110,946,-0.10865953133333334,-0.7693221566666666,0.38600408,0.0,0.0,0.0
2026-05-10 20:55:07.120,947,-0.018853212,-0.76126915,0.36126912,0.0,0.0,0.0
2026-05-10 20:55:07.130,948,-0.018853212,-0.76126915,0.36126912,0.0,0.0,0.0
2026-05-10 20:55:07.140,949,-0.018853212,-0.76126915,0.36126912,0.0,0.0,0.0
2026-05-10 20:55:07.150,950,-0.018853212,-0.76126915,0.36126912,0.0,0.0,0.0
2026-05-10 20:55:07.160,951,-0.018853212,-0.76126915,0.36126912,0.0,0.0,0.0
2026-05-10 20:55:07.170,952,-0.018853212,-0.76126915,0.36126912,0.0,0.0,0.0
2026-05-10 20:55:07.180,953,0.11982797699999999,-0.7076681874999999,0.3409250775,0.0,0.0,0.0
2026-05-10 20:55:07.190,954,0.16605504,-0.6898012000000001,0.33414373,0.0,0.0,0.0
2026-05-10 20:55:07.200,955,0.16605504,-0.6898012000000001,0.33414373,0.0,0.0,0.0
2026-05-10 20:55:07.210,956,0.16605504,-0.6898012000000001,0.33414373,0.0,0.0,0.0
2026-05-10 20:55:07.220,957,0.16605504,-0.6898012000000001,0.33414373,0.0,0.0,0.0
2026-05-10 20:55:07.230,958,0.2351682,-0.6206881,0.33730888,0.0,0.0,0.0
2026-05-10 20:55:07.240,959,0.27553516,-0.5792405666666667,0.34661571333333335,0.0,0.0,0.0
2026-05-10 20:55:07.250,960,0.29571864,-0.5585168,0.35126913,0.0,0.0,0.0
2026-05-10 20:55:07.260,961,0.29571864,-0.5585168,0.35126913,0.0,0.0,0.0
2026-05-10 20:55:07.270,962,0.29571864,-0.5585168,0.35126913,0.0,0.0,0.0
2026-05-10 20:55:07.280,963,0.29571864,-0.5585168,0.35126913,0.0,0.0,0.0
2026-05-10 20:55:07.290,964,0.29571864,-0.5585168,0.35126913,0.0,0.0,0.0
2026-05-10 20:55:07.300,965,0.29571864,-0.5585168,0.35126913,0.0,0.0,0.0
2026-05-10 20:55:07.310,966,0.29571864,-0.5585168,0.35126913,0.0,0.0,0.0
2026-05-10 20:55:07.320,967,0.42405199999999993,-0.51142204,0.28512233,0.0,0.0,0.0
2026-05-10 20:55:07.330,968,0.424052,-0.51142204,0.28512233,0.0,0.0,0.0
2026-05-10 20:55:07.340,969,0.42405199999999993,-0.51142204,0.28512233,0.0,0.0,0.0
2026-05-10 20:55:07.350,970,0.42405199999999993,-0.51142204,0.28512233,0.0,0.0,0.0
2026-05-10 20:55:07.360,971,0.42405199999999993,-0.51142204,0.28512233,0.0,0.0,0.0
2026-05-10 20:55:07.370,972,0.42405199999999993,-0.51142204,0.28512233,0.0,0.0,0.0
2026-05-10 20:55:07.380,973,0.42405199999999993,-0.51142204,0.28512233,0.0,0.0,0.0
2026-05-10 20:55:07.390,974,0.5257951,-0.45891437,0.08328746,0.0,0.0,0.0
2026-05-10 20:55:07.400,975,0.5257951,-0.45891437,0.08328746,0.0,0.0,0.0
2026-05-10 20:55:07.410,976,0.5257951,-0.45891437,0.08328746,0.0,0.0,0.0
2026-05-10 20:55:07.420,977,0.5257951,-0.45891437,0.08328746,0.0,0.0,0.0
2026-05-10 20:55:07.430,978,0.5257951,-0.45891437,0.08328746,0.0,0.0,0.0
2026-05-10 20:55:07.440,979,0.5257951,-0.45891437,0.08328746,0.0,0.0,0.0
2026-05-10 20:55:07.450,980,0.543685,-0.45030198250000003,0.0539525975,0.0,0.0,0.0
2026-05-10 20:55:07.460,981,0.5973547,-0.42446482,-0.03405199,0.0,0.0,0.0
2026-05-10 20:55:07.470,982,0.5973547,-0.42446482,-0.03405199,0.0,0.0,0.0
2026-05-10 20:55:07.480,983,0.5973547,-0.42446482,-0.03405199,0.0,0.0,0.0
2026-05-10 20:55:07.490,984,0.5973547,-0.42446482,-0.03405199,0.0,0.0,0.0
2026-05-10 20:55:07.500,985,0.75418195,-0.375435785,-0.219625385,0.0,0.0,0.0
2026-05-10 20:55:07.510,986,0.9110092,-0.32640675,-0.4051987799999999,0.0,0.0,0.0
2026-05-10 20:55:07.520,987,0.9110092,-0.32640675,-0.4051987799999999,0.0,0.0,0.0
2026-05-10 20:55:07.530,988,0.9110092,-0.32640675,-0.4051987799999999,0.0,0.0,0.0
2026-05-10 20:55:07.540,989,0.9110092,-0.32640675,-0.4051987799999999,0.0,0.0,0.0
2026-05-10 20:55:07.550,990,1.0346636,-0.28899083,-0.44506118,0.0,0.0,0.0
2026-05-10 20:55:07.560,991,1.0806268,-0.21876147,-0.4212997,0.0,0.0,0.0
2026-05-10 20:55:07.570,992,1.080194875,-0.2101452625,-0.4008104,0.0,0.0,0.0
2026-05-10 20:55:07.580,993,1.0788991,-0.18429664,-0.33934250000000005,0.0,0.0,0.0
2026-05-10 20:55:07.590,994,1.0788991,-0.18429664,-0.33934250000000005,0.0,0.0,0.0
2026-05-10 20:55:07.600,995,1.0788991,-0.18429664,-0.33934250000000005,0.0,0.0,0.0
2026-05-10 20:55:07.610,996,1.0447553,-0.118455656,-0.25218654,0.0,0.0,0.0
2026-05-10 20:55:07.620,997,1.0447553,-0.118455656,-0.25218654,0.0,0.0,0.0
2026-05-10 20:55:07.630,998,1.0447553,-0.118455656,-0.25218654,0.0,0.0,0.0
2026-05-10 20:55:07.640,999,1.0447553,-0.118455656,-0.25218654,0.0,0.0,0.0
2026-05-10 20:55:07.650,1000,1.0019418666666666,-0.054979612000000004,-0.19408256666666668,0.0,0.0,0.0
2026-05-10 20:55:07.660,1001,0.98053515,-0.02324159,-0.16503058,0.0,0.0,0.0
