timestamp,id,acc_x,acc_y,acc_z,gyro_x,gyro_y,gyro_z
2026-05-10 20:54:31.320,1,0.4963303,0.70662075,0.52232414,0.0,0.0,0.0
2026-05-10 20:54:31.330,2,0.500152915,0.7063914125,0.54648317,0.0,0.0,0.0
2026-05-10 20:54:31.340,3,0.50397553,0.706162075,0.5706422,0.0,0.0,0.0
2026-05-10 20:54:31.350,4,0.507798145,0.7059327375,0.5948012300000001,0.0,0.0,0.0
2026-05-10 20:54:31.360,5,0.51162076,0.7057034,0.61896026,0.0,0.0,0.0
2026-05-10 20:54:31.370,6,0.47094804,0.71151376,0.6570795,0.0,0.0,0.0
2026-05-10 20:54:31.380,7,0.47094804,0.71151376,0.6570795,0.0,0.0,0.0
2026-05-10 20:54:31.390,8,0.47094804,0.71151376,0.6570795,0.0,0.0,0.0
2026-05-10 20:54:31.400,9,0.47094803999999996,0.71151376,0.6570795,0.0,0.0,0.0
2026-05-10 20:54:31.410,10,0.47094803999999996,0.71151376,0.6570795,0.0,0.0,0.0
2026-05-10 20:54:31.420,11,0.47094803999999996,0.71151376,0.6570795,0.0,0.0,0.0
2026-05-10 20:54:31.430,12,0.47094803999999996,0.71151376,0.6570795,0.0,0.0,0.0
2026-05-10 20:54:31.440,13,0.47094803999999996,0.71151376,0.6570795,0.0,0.0,0.0
2026-05-10 20:54:31.450,14,0.47094803999999996,0.71151376,0.6570795,0.0,0.0,0.0
2026-05-10 20:54:31.460,15,0.44275996,0.708103955,0.6896483200000001,0.0,0.0,0.0
2026-05-10 20:54:31.470,16,0.41457188,0.70469415,0.72221714,0.0,0.0,0.0
2026-05-10 20:54:31.480,17,0.41457188,0.70469415,0.72221714,0.0,0.0,0.0
2026-05-10 20:54:31.490,18,0.41457188,0.70469415,0.72221714,0.0,0.0,0.0
2026-05-10 20:54:31.500,19,0.39146789666666665,0.7077828433333333,0.7331243733333334,0.0,0.0,0.0
2026-05-10 20:54:31.510,20,0.36836391333333335,0.7108715366666667,0.7440316066666667,0.0,0.0,0.0
2026-05-10 20:54:31.520,21,0.34525993,0.71396023,0.75493884,0.0,0.0,0.0
2026-05-10 20:54:31.530,22,0.34525992999999994,0.71396023,0.75493884,0.0,0.0,0.0
2026-05-10 20:54:31.540,23,0.34525993,0.71396023,0.75493884,0.0,0.0,0.0
2026-05-10 20:54:31.550,24,0.34525992999999994,0.71396023,0.75493884,0.0,0.0,0.0
2026-05-10 20:54:31.560,25,0.34525992999999994,0.71396023,0.75493884,0.0,0.0,0.0
2026-05-10 20:54:31.570,26,0.34525993,0.71396023,0.75493884,0.0,0.0,0.0
2026-05-10 20:54:31.580,27,0.34525993,0.71396023,0.75493884,0.0,0.0,0.0
2026-05-10 20:54:31.590,28,0.34525993,0.71396023,0.75493884,0.0,0.0,0.0
2026-05-10 20:54:31.600,29,0.34525992999999994,0.71396023,0.75493884,0.0,0.0,0.0
2026-05-10 20:54:31.610,30,0.34525992999999994,0.71396023,0.75493884,0.0,0.0,0.0
2026-05-10 20:54:31.620,31,0.34525993,0.71396023,0.75493884,0.0,0.0,0.0
2026-05-10 20:54:31.630,32,0.34525992999999994,0.71396023,0.75493884,0.0,0.0,0.0
2026-05-10 20:54:31.640,33,0.34525992999999994,0.71396023,0.75493884,0.0,0.0,0.0
2026-05-10 20:54:31.650,34,0.34525993,0.71396023,0.75493884,0.0,0.0,0.0
2026-05-10 20:54:31.660,35,0.34525992999999994,0.71396023,0.75493884,0.0,0.0,0.0
2026-05-10 20:54:31.670,36,0.34525993,0.71396023,0.75493884,0.0,0.0,0.0
2026-05-10 20:54:31.680,37,0.34525992999999994,0.71396023,0.75493884,0.0,0.0,0.0
2026-05-10 20:54:31.690,38,0.34525992999999994,0.71396023,0.75493884,0.0,0.0,0.0
2026-05-10 20:54:31.700,39,0.33478975749999995,0.7037194075,0.7580810474999999,0.0,0.0,0.0
2026-05-10 20:54:31.710,40,0.3312997,0.7003058000000001,0.75912845,0.0,0.0,0.0
2026-05-10 20:54:31.720,41,0.3312997,0.7003058000000001,0.75912845,0.0,0.0,0.0
2026-05-10 20:54:31.730,42,0.3312997,0.7003058,0.75912845,0.0,0.0,0.0
2026-05-10 20:54:31.740,43,0.3312997,0.7003058000000001,0.75912845,0.0,0.0,0.0
2026-05-10 20:54:31.750,44,0.3312997,0.7003058,0.75912845,0.0,0.0,0.0
2026-05-10 20:54:31.760,45,0.33741590000000005,0.6924617999999999,0.7281345,0.0,0.0,0.0
2026-05-10 20:54:31.770,46,0.33741590000000005,0.6924617999999999,0.7281345,0.0,0.0,0.0
2026-05-10 20:54:31.780,47,0.33741590000000005,0.6924617999999999,0.7281345,0.0,0.0,0.0
2026-05-10 20:54:31.790,48,0.3624847025,0.6975765,0.702297375,0.0,0.0,0.0
2026-05-10 20:54:31.800,49,0.37084097,0.6992813999999999,0.693685,0.0,0.0,0.0
2026-05-10 20:54:31.810,50,0.37084097,0.6992813999999999,0.693685,0.0,0.0,0.0
2026-05-10 20:54:31.820,51,0.37084097,0.6992814,0.693685,0.0,0.0,0.0
2026-05-10 20:54:31.830,52,0.37084097,0.6992813999999999,0.693685,0.0,0.0,0.0
2026-05-10 20:54:31.840,53,0.37084097,0.6992813999999999,0.693685,0.0,0.0,0.0
2026-05-10 20:54:31.850,54,0.37084097,0.6992813999999999,0.693685,0.0,0.0,0.0
2026-05-10 20:54:31.860,55,0.37542814,0.69888383,0.6672783,0.0,0.0,0.0
2026-05-10 20:54:31.870,56,0.3754281400000001,0.6988838300000001,0.6672783,0.0,0.0,0.0
2026-05-10 20:54:31.880,57,0.37542814,0.69888383,0.6672783,0.0,0.0,0.0
2026-05-10 20:54:31.890,58,0.3754281400000001,0.6988838300000001,0.6672783,0.0,0.0,0.0
2026-05-10 20:54:31.900,59,0.3754281400000001,0.6988838300000001,0.6672783,0.0,0.0,0.0
2026-05-10 20:54:31.910,60,0.3754281400000001,0.6988838300000001,0.6672783,0.0,0.0,0.0
2026-05-10 20:54:31.920,61,0.3754281400000001,0.6988838300000001,0.6672783,0.0,0.0,0.0
2026-05-10 20:54:31.930,62,0.37542814,0.69888383,0.6672783,0.0,0.0,0.0
2026-05-10 20:54:31.940,63,0.41457188,0.7127115533333334,0.6215749333333332,0.0,0.0,0.0
2026-05-10 20:54:31.950,64,0.49285936,0.740367,0.5301682,0.0,0.0,0.0
2026-05-10 20:54:31.960,65,0.49285936,0.740367,0.5301682,0.0,0.0,0.0
2026-05-10 20:54:31.970,66,0.49285936,0.740367,0.5301682,0.0,0.0,0.0
2026-05-10 20:54:31.980,67,0.49285936,0.740367,0.5301682,0.0,0.0,0.0
2026-05-10 20:54:31.990,68,0.49285936,0.740367,0.5301682,0.0,0.0,0.0
2026-05-10 20:54:32.000,69,0.49285936,0.740367,0.5301682,0.0,0.0,0.0
2026-05-10 20:54:32.010,70,0.49285936,0.740367,0.5301682,0.0,0.0,0.0
2026-05-10 20:54:32.020,71,0.38399082,0.69785935,0.664419,0.0,0.0,0.0
2026-05-10 20:54:32.030,72,0.38399082,0.69785935,0.664419,0.0,0.0,0.0
2026-05-10 20:54:32.040,73,0.38399082,0.69785935,0.664419,0.0,0.0,0.0
2026-05-10 20:54:32.050,74,0.38399082,0.69785935,0.664419,0.0,0.0,0.0
2026-05-10 20:54:32.060,75,0.38399082,0.69785935,0.664419,0.0,0.0,0.0
2026-05-10 20:54:32.070,76,0.38399082,0.69785935,0.664419,0.0,0.0,0.0
2026-05-10 20:54:32.080,77,0.38399082,0.69785935,0.664419,0.0,0.0,0.0
2026-05-10 20:54:32.090,78,0.420229345,0.7191131749999999,0.60218655,0.0,0.0,0.0
2026-05-10 20:54:32.100,79,0.45646787,0.740367,0.5399541,0.0,0.0,0.0
2026-05-10 20:54:32.110,80,0.45646787,0.740367,0.5399541,0.0,0.0,0.0
2026-05-10 20:54:32.120,81,0.45646787,0.740367,0.5399541,0.0,0.0,0.0
2026-05-10 20:54:32.130,82,0.45646787,0.740367,0.5399541,0.0,0.0,0.0
2026-05-10 20:54:32.140,83,0.45646787,0.740367,0.5399541,0.0,0.0,0.0
2026-05-10 20:54:32.150,84,0.45646787,0.740367,0.5399541,0.0,0.0,0.0
2026-05-10 20:54:32.160,85,0.45646787,0.740367,0.5399541,0.0,0.0,0.0
2026-05-10 20:54:32.170,86,0.45646787,0.740367,0.5399541,0.0,0.0,0.0
2026-05-10 20:54:32.180,87,0.45646787,0.740367,0.5399541,0.0,0.0,0.0
2026-05-10 20:54:32.190,88,0.45646787,0.740367,0.5399541,0.0,0.0,0.0
2026-05-10 20:54:32.200,89,0.45646787,0.740367,0.5399541,0.0,0.0,0.0
2026-05-10 20:54:32.210,90,0.45646787,0.740367,0.5399541,0.0,0.0,0.0
2026-05-10 20:54:32.220,91,0.45646787,0.740367,0.5399541,0.0,0.0,0.0
2026-05-10 20:54:32.230,92,0.5301682,0.7415902600000001,0.512844,0.0,0.0,0.0
2026-05-10 20:54:32.240,93,0.5301682,0.7415902600000001,0.512844,0.0,0.0,0.0
2026-05-10 20:54:32.250,94,0.5301682,0.7415902600000001,0.512844,0.0,0.0,0.0
2026-05-10 20:54:32.260,95,0.5301682,0.74159026,0.512844,0.0,0.0,0.0
2026-05-10 20:54:32.270,96,0.5301682,0.74159026,0.512844,0.0,0.0,0.0
2026-05-10 20:54:32.280,97,0.5301682,0.7415902600000001,0.512844,0.0,0.0,0.0
2026-05-10 20:54:32.290,98,0.5282416,0.7888838000000001,0.47747703999999996,0.0,0.0,0.0
2026-05-10 20:54:32.300,99,0.5282416,0.8155912666666666,0.4761824666666667,0.0,0.0,0.0
2026-05-10 20:54:32.310,100,0.5282416,0.828945,0.47553518,0.0,0.0,0.0
2026-05-10 20:54:32.320,101,0.5282416,0.828945,0.47553518,0.0,0.0,0.0
2026-05-10 20:54:32.330,102,0.5282416,0.828945,0.47553518,0.0,0.0,0.0
2026-05-10 20:54:32.340,103,0.5282416,0.828945,0.47553518,0.0,0.0,0.0
2026-05-10 20:54:32.350,104,0.5282416,0.828945,0.47553518,0.0,0.0,0.0
2026-05-10 20:54:32.360,105,0.5282416,0.828945,0.47553518,0.0,0.0,0.0
2026-05-10 20:54:32.370,106,0.5282416,0.828945,0.47553518,0.0,0.0,0.0
2026-05-10 20:54:32.380,107,0.5282416,0.828945,0.47553518,0.0,0.0,0.0
2026-05-10 20:54:32.390,108,0.5282416,0.828945,0.47553518,0.0,0.0,0.0
2026-05-10 20:54:32.400,109,0.52446483,0.8332263,0.47553518,0.0,0.0,0.0
2026-05-10 20:54:32.410,110,0.52068806,0.8375076,0.47553518,0.0,0.0,0.0
2026-05-10 20:54:32.420,111,0.52068806,0.8375076,0.47553518,0.0,0.0,0.0
2026-05-10 20:54:32.430,112,0.52068806,0.8375076,0.47553518,0.0,0.0,0.0
2026-05-10 20:54:32.440,113,0.52263,0.84678894,0.5399541,0.0,0.0,0.0
2026-05-10 20:54:32.450,114,0.5316972,0.8855198999999999,0.6058104,0.0,0.0,0.0
2026-05-10 20:54:32.460,115,0.5316972,0.8855198999999999,0.6058104,0.0,0.0,0.0
2026-05-10 20:54:32.470,116,0.63129973,0.9297707,0.7309939,0.0,0.0,0.0
2026-05-10 20:54:32.480,117,0.6362589366666667,0.9277981999999999,0.7424108199999999,0.0,0.0,0.0
2026-05-10 20:54:32.490,118,0.64617735,0.9238532,0.76524466,0.0,0.0,0.0
2026-05-10 20:54:32.500,119,0.64617735,0.9238532,0.76524466,0.0,0.0,0.0
2026-05-10 20:54:32.510,120,0.64617735,0.9238532,0.76524466,0.0,0.0,0.0
2026-05-10 20:54:32.520,121,0.64617735,0.9238532,0.76524466,0.0,0.0,0.0
2026-05-10 20:54:32.530,122,0.64617735,0.9238532,0.76524466,0.0,0.0,0.0
2026-05-10 20:54:32.540,123,0.64617735,0.9238532,0.76524466,0.0,0.0,0.0
2026-05-10 20:54:32.550,124,0.64617735,0.9238532,0.76524466,0.0,0.0,0.0
2026-05-10 20:54:32.560,125,0.64617735,0.9238532,0.76524466,0.0,0.0,0.0
2026-05-10 20:54:32.570,126,0.64617735,0.9238532,0.76524466,0.0,0.0,0.0
2026-05-10 20:54:32.580,127,0.64617735,0.9238532,0.76524466,0.0,0.0,0.0
2026-05-10 20:54:32.590,128,0.64934254,0.91090214,0.8372019,0.0,0.0,0.0
2026-05-10 20:54:32.600,129,0.64934254,0.91090214,0.8372019,0.0,0.0,0.0
2026-05-10 20:54:32.610,130,0.64342505,0.8799236,0.9863455,0.0,0.0,0.0
2026-05-10 20:54:32.620,131,0.64342505,0.8799236,0.9863455,0.0,0.0,0.0
2026-05-10 20:54:32.630,132,0.64342505,0.8799236,0.9863455,0.0,0.0,0.0
2026-05-10 20:54:32.640,133,0.64342505,0.8799236,0.9863455,0.0,0.0,0.0
2026-05-10 20:54:32.650,134,0.64342505,0.8799236,0.9863455,0.0,0.0,0.0
2026-05-10 20:54:32.660,135,0.64342505,0.8799236,0.9863455,0.0,0.0,0.0
2026-05-10 20:54:32.670,136,0.64342505,0.8799236,0.9863455,0.0,0.0,0.0
2026-05-10 20:54:32.680,137,0.64342505,0.8799236,0.9863455,0.0,0.0,0.0
2026-05-10 20:54:32.690,138,0.6461276625000001,0.880049725,0.988535875,0.0,0.0,0.0
2026-05-10 20:54:32.700,139,0.6542355,0.8804281,0.995107,0.0,0.0,0.0
2026-05-10 20:54:32.710,140,0.6542355,0.8804281,0.995107,0.0,0.0,0.0
2026-05-10 20:54:32.720,141,0.6542355,0.8804281,0.995107,0.0,0.0,0.0
2026-05-10 20:54:32.730,142,0.6542355,0.8804281,0.995107,0.0,0.0,0.0
2026-05-10 20:54:32.740,143,0.6542355,0.8804281,0.995107,0.0,0.0,0.0
2026-05-10 20:54:32.750,144,0.6542355,0.8804281,0.995107,0.0,0.0,0.0
2026-05-10 20:54:32.760,145,0.6542355,0.8804281,0.995107,0.0,0.0,0.0
2026-05-10 20:54:32.770,146,0.6542355,0.8804281,0.995107,0.0,0.0,0.0
2026-05-10 20:54:32.780,147,0.6542355,0.8804281,0.995107,0.0,0.0,0.0
2026-05-10 20:54:32.790,148,0.6542355,0.8804281,0.995107,0.0,0.0,0.0
2026-05-10 20:54:32.800,149,0.6542355,0.8804281,0.995107,0.0,0.0,0.0
2026-05-10 20:54:32.810,150,0.6542355,0.8804281,0.995107,0.0,0.0,0.0
2026-05-10 20:54:32.820,151,0.6542355,0.8804281,0.995107,0.0,0.0,0.0
2026-05-10 20:54:32.830,152,0.65726684,0.8800726125,0.995107,0.0,0.0,0.0
2026-05-10 20:54:32.840,153,0.66636086,0.87900615,0.995107,0.0,0.0,0.0
2026-05-10 20:54:32.850,154,0.66636086,0.87900615,0.995107,0.0,0.0,0.0
2026-05-10 20:54:32.860,155,0.66636086,0.87900615,0.995107,0.0,0.0,0.0
2026-05-10 20:54:32.870,156,0.66636086,0.87900615,0.995107,0.0,0.0,0.0
2026-05-10 20:54:32.880,157,0.66636086,0.87900615,0.995107,0.0,0.0,0.0
2026-05-10 20:54:32.890,158,0.66636086,0.87900615,0.995107,0.0,0.0,0.0
2026-05-10 20:54:32.900,159,0.66636086,0.87900615,0.995107,0.0,0.0,0.0
2026-05-10 20:54:32.910,160,0.66636086,0.87900615,0.995107,0.0,0.0,0.0
2026-05-10 20:54:32.920,161,0.7065952866666666,0.87621305,0.9926606000000001,0.0,0.0,0.0
2026-05-10 20:54:32.930,162,0.7186047375,0.910676625,1.008100225,0.0,0.0,0.0
2026-05-10 20:54:32.940,163,0.7159021500000001,0.92263,1.0136545,0.0,0.0,0.0
2026-05-10 20:54:32.950,164,0.7159021500000001,0.92263,1.0136545,0.0,0.0,0.0
2026-05-10 20:54:32.960,165,0.71590215,0.92263,1.0136545,0.0,0.0,0.0
2026-05-10 20:54:32.970,166,0.7027522999999999,0.9427472,1.0291183333333331,0.0,0.0,0.0
2026-05-10 20:54:32.980,167,0.6764525999999998,0.9829816,1.060046,0.0,0.0,0.0
2026-05-10 20:54:32.990,168,0.6764525999999998,0.9829816,1.060046,0.0,0.0,0.0
2026-05-10 20:54:33.000,169,0.6585091750000001,1.02334865,1.06371565,0.0,0.0,0.0
2026-05-10 20:54:33.010,170,0.64056575,1.0637157,1.0673853,0.0,0.0,0.0
2026-05-10 20:54:33.020,171,0.64056575,1.0637157,1.0673853,0.0,0.0,0.0
2026-05-10 20:54:33.030,172,0.64056575,1.0637157,1.0673853,0.0,0.0,0.0
2026-05-10 20:54:33.040,173,0.64056575,1.0637157,1.0673853,0.0,0.0,0.0
2026-05-10 20:54:33.050,174,0.64056575,1.0637157,1.0673853,0.0,0.0,0.0
2026-05-10 20:54:33.060,175,0.64056575,1.0637157,1.0673853,0.0,0.0,0.0
2026-05-10 20:54:33.070,176,0.64056575,1.0637157,1.0673853,0.0,0.0,0.0
2026-05-10 20:54:33.080,177,0.64056575,1.0637157,1.0673853,0.0,0.0,0.0
2026-05-10 20:54:33.090,178,0.64056575,1.0637157,1.0673853,0.0,0.0,0.0
2026-05-10 20:54:33.100,179,0.6285066333333335,1.0884506333333333,1.0532161,0.0,0.0,0.0
2026-05-10 20:54:33.110,180,0.6043884,1.1379205,1.0248777,0.0,0.0,0.0
2026-05-10 20:54:33.120,181,0.6043884,1.1379205,1.0248777,0.0,0.0,0.0
2026-05-10 20:54:33.130,182,0.6043884,1.1379205,1.0248777,0.0,0.0,0.0
2026-05-10 20:54:33.140,183,0.6043884,1.1379205,1.0248777,0.0,0.0,0.0
2026-05-10 20:54:33.150,184,0.6043884,1.1379205,1.0248777,0.0,0.0,0.0
2026-05-10 20:54:33.160,185,0.6043884,1.1379205,1.0248777,0.0,0.0,0.0
2026-05-10 20:54:33.170,186,0.6043884,1.1379205,1.0248777,0.0,0.0,0.0
2026-05-10 20:54:33.180,187,0.55938073,1.20453365,0.9861926999999999,0.0,0.0,0.0
2026-05-10 20:54:33.190,188,0.51437306,1.2711468,0.9475077,0.0,0.0,0.0
2026-05-10 20:54:33.200,189,0.51331802,1.2936085666666666,0.9444138999999999,0.0,0.0,0.0
2026-05-10 20:54:33.210,190,0.51120794,1.3385321,0.9382262999999998,0.0,0.0,0.0
2026-05-10 20:54:33.220,191,0.51120794,1.3385321,0.9382262999999998,0.0,0.0,0.0
2026-05-10 20:54:33.230,192,0.51120794,1.3385321,0.9382263,0.0,0.0,0.0
2026-05-10 20:54:33.240,193,0.51120794,1.3385321,0.9382262999999998,0.0,0.0,0.0
2026-05-10 20:54:33.250,194,0.51120794,1.3385321,0.9382263,0.0,0.0,0.0
2026-05-10 20:54:33.260,195,0.51120794,1.3385321,0.9382262999999998,0.0,0.0,0.0
2026-05-10 20:54:33.270,196,0.51120794,1.3385321,0.9382263,0.0,0.0,0.0
2026-05-10 20:54:33.280,197,0.51120794,1.3385321,0.9382262999999998,0.0,0.0,0.0
2026-05-10 20:54:33.290,198,0.51120794,1.3385321,0.9382262999999998,0.0,0.0,0.0
2026-05-10 20:54:33.300,199,0.51120794,1.3385321,0.9382263,0.0,0.0,0.0
2026-05-10 20:54:33.310,200,0.51120794,1.3385321,0.9382262999999998,0.0,0.0,0.0
2026-05-10 20:54:33.320,201,0.51120794,1.3385321,0.9382262999999998,0.0,0.0,0.0
2026-05-10 20:54:33.330,202,0.51120794,1.3385321,0.9382263,0.0,0.0,0.0
2026-05-10 20:54:33.340,203,0.51120794,1.3385321,0.9382262999999998,0.0,0.0,0.0
2026-05-10 20:54:33.350,204,0.564418985,1.3704128,0.934407525,0.0,0.0,0.0
2026-05-10 20:54:33.360,205,0.582156,1.3810396999999999,0.9331346000000001,0.0,0.0,0.0
2026-05-10 20:54:33.370,206,0.582156,1.3810396999999999,0.9331346000000001,0.0,0.0,0.0
2026-05-10 20:54:33.380,207,0.582156,1.3810397,0.9331346,0.0,0.0,0.0
2026-05-10 20:54:33.390,208,0.582156,1.3810396999999999,0.9331346000000001,0.0,0.0,0.0
2026-05-10 20:54:33.400,209,0.582156,1.3810396999999999,0.9331346000000001,0.0,0.0,0.0
2026-05-10 20:54:33.410,210,0.582156,1.3810396999999999,0.9331346000000001,0.0,0.0,0.0
2026-05-10 20:54:33.420,211,0.582156,1.3810397,0.9331346,0.0,0.0,0.0
2026-05-10 20:54:33.430,212,0.582156,1.3810396999999999,0.9331346000000001,0.0,0.0,0.0
2026-05-10 20:54:33.440,213,0.582156,1.3810396999999999,0.9331346000000001,0.0,0.0,0.0
2026-05-10 20:54:33.450,214,0.582156,1.3810397,0.9331346,0.0,0.0,0.0
2026-05-10 20:54:33.460,215,0.582156,1.3810396999999999,0.9331346000000001,0.0,0.0,0.0
2026-05-10 20:54:33.470,216,0.582156,1.3810396999999999,0.9331346000000001,0.0,0.0,0.0
2026-05-10 20:54:33.480,217,0.6109021575,1.4097591250000001,0.932393,0.0,0.0,0.0
2026-05-10 20:54:33.490,218,0.69714063,1.4959174,0.9301682,0.0,0.0,0.0
2026-05-10 20:54:33.500,219,0.69714063,1.4959174,0.9301682,0.0,0.0,0.0
2026-05-10 20:54:33.510,220,0.69714063,1.4959174,0.9301682,0.0,0.0,0.0
2026-05-10 20:54:33.520,221,0.69714063,1.4959174,0.9301682,0.0,0.0,0.0
2026-05-10 20:54:33.530,222,0.69714063,1.4959174,0.9301682,0.0,0.0,0.0
2026-05-10 20:54:33.540,223,0.6971406300000001,1.4959174,0.9301682000000001,0.0,0.0,0.0
2026-05-10 20:54:33.550,224,0.6971406300000001,1.4959174,0.9301682000000001,0.0,0.0,0.0
2026-05-10 20:54:33.560,225,0.7191946666666666,1.5039041666666666,0.9587105,0.0,0.0,0.0
2026-05-10 20:54:33.570,226,0.76330274,1.5198777,1.0157951,0.0,0.0,0.0
2026-05-10 20:54:33.580,227,0.76330274,1.5198777,1.0157951,0.0,0.0,0.0
2026-05-10 20:54:33.590,228,0.76330274,1.5198777,1.0157951,0.0,0.0,0.0
2026-05-10 20:54:33.600,229,0.7713609,1.4874618,1.1209939,0.0,0.0,0.0
2026-05-10 20:54:33.610,230,0.7713609,1.4874618,1.1209939,0.0,0.0,0.0
2026-05-10 20:54:33.620,231,0.7713609,1.4874618,1.1209939,0.0,0.0,0.0
2026-05-10 20:54:33.630,232,0.7713609,1.4874618,1.1209939,0.0,0.0,0.0
2026-05-10 20:54:33.640,233,0.7713609,1.4874618,1.1209939,0.0,0.0,0.0
2026-05-10 20:54:33.650,234,0.7713609,1.4874618,1.1209939,0.0,0.0,0.0
2026-05-10 20:54:33.660,235,0.7713609,1.4874618,1.1209939,0.0,0.0,0.0
2026-05-10 20:54:33.670,236,0.7713609,1.4874618,1.1209939,0.0,0.0,0.0
2026-05-10 20:54:33.680,237,0.7713609,1.4874618,1.1209939,0.0,0.0,0.0
2026-05-10 20:54:33.690,238,0.7713609,1.4874618,1.1209939,0.0,0.0,0.0
2026-05-10 20:54:33.700,239,0.7713609,1.4874618,1.1209939,0.0,0.0,0.0
2026-05-10 20:54:33.710,240,0.7713609,1.4874618,1.1209939,0.0,0.0,0.0
2026-05-10 20:54:33.720,241,0.7713609,1.4874618,1.1209939,0.0,0.0,0.0
2026-05-10 20:54:33.730,242,0.7713609,1.4874618,1.1209939,0.0,0.0,0.0
2026-05-10 20:54:33.740,243,0.7973471249999999,1.4945718749999999,1.14813835,0.0,0.0,0.0
2026-05-10 20:54:33.750,244,0.8060092,1.4969419000000002,1.1571865,0.0,0.0,0.0
2026-05-10 20:54:33.760,245,0.8060092,1.4969419,1.1571865,0.0,0.0,0.0
2026-05-10 20:54:33.770,246,0.8053057999999998,1.4661621,1.1571865,0.0,0.0,0.0
2026-05-10 20:54:33.780,247,0.8053057999999998,1.4661621,1.1571865,0.0,0.0,0.0
2026-05-10 20:54:33.790,248,0.8053058,1.4661621,1.1571865,0.0,0.0,0.0
2026-05-10 20:54:33.800,249,0.8053057999999998,1.4661621,1.1571865,0.0,0.0,0.0
2026-05-10 20:54:33.810,250,0.5534862319999999,1.0079867613333333,1.1193322666666665,0.0,0.0,0.0
2026-05-10 20:54:33.820,251,0.024159022000000002,-0.002553518666666666,1.0026452666666668,0.0,0.0,0.0
2026-05-10 20:54:33.830,252,0.011314985,-0.04964832,0.982156,0.0,0.0,0.0
2026-05-10 20:54:33.840,253,0.011314985,-0.04964832,0.9821560000000001,0.0,0.0,0.0
2026-05-10 20:54:33.850,254,0.011314985,-0.04964832,0.9821560000000001,0.0,0.0,0.0
2026-05-10 20:54:33.860,255,0.011314985,-0.04964832,0.9821560000000001,0.0,0.0,0.0
2026-05-10 20:54:33.870,256,0.2643221233333333,0.4413812866666667,1.0358460999999999,0.0,0.0,0.0
2026-05-10 20:54:33.880,257,0.7703364,1.4234405,1.1432263,0.0,0.0,0.0
2026-05-10 20:54:33.890,258,0.72507645,1.37548175,1.11065755,0.0,0.0,0.0
2026-05-10 20:54:33.900,259,0.66778798,1.2877676,1.0733639666666666,0.0,0.0,0.0
2026-05-10 20:54:33.910,260,0.64373094,1.2082568,1.0639143,0.0,0.0,0.0
2026-05-10 20:54:33.920,261,0.64373094,1.2082568,1.0639143,0.0,0.0,0.0
2026-05-10 20:54:33.930,262,0.64373094,1.2082568,1.0639143,0.0,0.0,0.0
2026-05-10 20:54:33.940,263,0.64373094,1.2082568,1.0639143,0.0,0.0,0.0
2026-05-10 20:54:33.950,264,0.64373094,1.2082568,1.0639143,0.0,0.0,0.0
2026-05-10 20:54:33.960,265,0.5946942,1.0668654,1.060046,0.0,0.0,0.0
2026-05-10 20:54:33.970,266,0.5946942,1.0668654,1.060046,0.0,0.0,0.0
2026-05-10 20:54:33.980,267,0.5946942,1.0668654,1.060046,0.0,0.0,0.0
2026-05-10 20:54:33.990,268,0.4088685,0.8860397299999999,1.0731957,0.0,0.0,0.0
2026-05-10 20:54:34.000,269,0.4088685,0.88603973,1.0731957,0.0,0.0,0.0
2026-05-10 20:54:34.010,270,0.4088685,0.8860397299999999,1.0731957,0.0,0.0,0.0
2026-05-10 20:54:34.020,271,0.4088685,0.8860397299999999,1.0731957,0.0,0.0,0.0
2026-05-10 20:54:34.030,272,0.4088685,0.88603973,1.0731957,0.0,0.0,0.0
2026-05-10 20:54:34.040,273,0.4088685,0.8860397299999999,1.0731957,0.0,0.0,0.0
2026-05-10 20:54:34.050,274,0.3833843133333334,0.8631345433333334,1.0735321000000002,0.0,0.0,0.0
2026-05-10 20:54:34.060,275,0.37064221999999997,0.85168195,1.0737003,0.0,0.0,0.0
2026-05-10 20:54:34.070,276,0.37064222,0.85168195,1.0737003,0.0,0.0,0.0
2026-05-10 20:54:34.080,277,0.37064221999999997,0.85168195,1.0737003,0.0,0.0,0.0
2026-05-10 20:54:34.090,278,0.37064221999999997,0.85168195,1.0737003,0.0,0.0,0.0
2026-05-10 20:54:34.100,279,0.37064222,0.85168195,1.0737003,0.0,0.0,0.0
2026-05-10 20:54:34.110,280,0.37064221999999997,0.85168195,1.0737003,0.0,0.0,0.0
2026-05-10 20:54:34.120,281,0.37064221999999997,0.85168195,1.0737003,0.0,0.0,0.0
2026-05-10 20:54:34.130,282,0.37064222,0.85168195,1.0737003,0.0,0.0,0.0
2026-05-10 20:54:34.140,283,0.28223242666666665,0.6500509833333333,1.0654128999999999,0.0,0.0,0.0
2026-05-10 20:54:34.150,284,0.23802753,0.5492355,1.0612692,0.0,0.0,0.0
2026-05-10 20:54:34.160,285,0.23802753,0.5492355,1.0612692,0.0,0.0,0.0
2026-05-10 20:54:34.170,286,0.22778288,0.5080543,1.059075,0.0,0.0,0.0
2026-05-10 20:54:34.180,287,0.19704893,0.38451070000000004,1.0524924,0.0,0.0,0.0
2026-05-10 20:54:34.190,288,0.19704893,0.3845107,1.0524924,0.0,0.0,0.0
2026-05-10 20:54:34.200,289,0.19704893,0.38451070000000004,1.0524924,0.0,0.0,0.0
2026-05-10 20:54:34.210,290,0.19704893,0.38451070000000004,1.0524924,0.0,0.0,0.0
2026-05-10 20:54:34.220,291,0.19704893,0.3845107,1.0524924,0.0,0.0,0.0
2026-05-10 20:54:34.230,292,0.19704893,0.38451070000000004,1.0524924,0.0,0.0,0.0
2026-05-10 20:54:34.240,293,0.19704893,0.38451070000000004,1.0524924,0.0,0.0,0.0
2026-05-10 20:54:34.250,294,0.19704893,0.3845107,1.0524924,0.0,0.0,0.0
2026-05-10 20:54:34.260,295,0.19704893,0.38451070000000004,1.0524924,0.0,0.0,0.0
2026-05-10 20:54:34.270,296,0.19704893,0.3845107,1.0524924,0.0,0.0,0.0
2026-05-10 20:54:34.280,297,0.19704893,0.38451070000000004,1.0524924,0.0,0.0,0.0
2026-05-10 20:54:34.290,298,0.19704893,0.38451070000000004,1.0524924,0.0,0.0,0.0
2026-05-10 20:54:34.300,299,0.19704893,0.3845107,1.0524924,0.0,0.0,0.0
2026-05-10 20:54:34.310,300,0.19704893,0.38451070000000004,1.0524924,0.0,0.0,0.0
2026-05-10 20:54:34.320,301,0.19704893,0.38451070000000004,1.0524924,0.0,0.0,0.0
2026-05-10 20:54:34.330,302,0.19704893,0.3845107,1.0524924,0.0,0.0,0.0
2026-05-10 20:54:34.340,303,0.19704893,0.38451070000000004,1.0524924,0.0,0.0,0.0
2026-05-10 20:54:34.350,304,0.19704893,0.38451070000000004,1.0524924,0.0,0.0,0.0
2026-05-10 20:54:34.360,305,0.19704893,0.3845107,1.0524924,0.0,0.0,0.0
2026-05-10 20:54:34.370,306,-0.17043834000000002,-0.14580020000000002,0.7481141866666666,0.0,0.0,0.0
2026-05-10 20:54:34.380,307,-0.5636086,-0.5424006,0.4022477,0.0,0.0,0.0
2026-05-10 20:54:34.390,308,-0.5636086,-0.5424006,0.4022477,0.0,0.0,0.0
2026-05-10 20:54:34.400,309,-0.6096126666666667,-0.6278236666666667,0.32755860666666664,0.0,0.0,0.0
2026-05-10 20:54:34.410,310,-0.6126350333333334,-0.74698778,0.12765545333333334,0.0,0.0,0.0
2026-05-10 20:54:34.420,311,-0.47227833,-0.8491284,-0.4850153,0.0,0.0,0.0
2026-05-10 20:54:34.430,312,-0.47227833,-0.8491284,-0.4850153,0.0,0.0,0.0
2026-05-10 20:54:34.440,313,-0.47227833,-0.8491284,-0.4850153,0.0,0.0,0.0
2026-05-10 20:54:34.450,314,-0.47227833,-0.8491284,-0.4850153,0.0,0.0,0.0
2026-05-10 20:54:34.460,315,-0.47227833,-0.8491284,-0.4850153,0.0,0.0,0.0
2026-05-10 20:54:34.470,316,-0.4307798,-0.7722783,-0.6395566,0.0,0.0,0.0
2026-05-10 20:54:34.480,317,-0.4307798,-0.7722783,-0.6395566,0.0,0.0,0.0
2026-05-10 20:54:34.490,318,-0.4307798,-0.7722783,-0.6395566,0.0,0.0,0.0
2026-05-10 20:54:34.500,319,-0.4307798,-0.7722783,-0.6395566,0.0,0.0,0.0
2026-05-10 20:54:34.510,320,-0.4307798,-0.7722783,-0.6395566,0.0,0.0,0.0
2026-05-10 20:54:34.520,321,-0.4307798,-0.7722783,-0.6395566,0.0,0.0,0.0
2026-05-10 20:54:34.530,322,-0.4307798,-0.7722783,-0.6395566,0.0,0.0,0.0
2026-05-10 20:54:34.540,323,-0.3467660525,-0.72778287,-0.9503364250000002,0.0,0.0,0.0
2026-05-10 20:54:34.550,324,-0.31876147,-0.71295106,-1.0539297,0.0,0.0,0.0
2026-05-10 20:54:34.560,325,-0.31876147,-0.71295106,-1.0539297,0.0,0.0,0.0
2026-05-10 20:54:34.570,326,-0.162421,-0.7206982533333334,-1.1576656666666667,0.0,0.0,0.0
2026-05-10 20:54:34.580,327,0.15025994,-0.73619264,-1.3651376,0.0,0.0,0.0
2026-05-10 20:54:34.590,328,0.23516819,-0.74143727,-1.3679434,0.0,0.0,0.0
2026-05-10 20:54:34.600,329,0.42405199999999993,-0.7627982000000001,-1.3654435000000003,0.0,0.0,0.0
2026-05-10 20:54:34.610,330,0.424052,-0.7627982,-1.3654435,0.0,0.0,0.0
2026-05-10 20:54:34.620,331,0.42405199999999993,-0.7627982000000001,-1.3654435000000003,0.0,0.0,0.0
2026-05-10 20:54:34.630,332,0.424052,-0.7627982,-1.3654435,0.0,0.0,0.0
2026-05-10 20:54:34.640,333,0.42405199999999993,-0.7627982000000001,-1.3654435000000003,0.0,0.0,0.0
2026-05-10 20:54:34.650,334,0.42405199999999993,-0.7627982000000001,-1.3654435000000003,0.0,0.0,0.0
2026-05-10 20:54:34.660,335,0.424052,-0.7627982,-1.3654435,0.0,0.0,0.0
2026-05-10 20:54:34.670,336,0.42405199999999993,-0.7627982000000001,-1.3654435000000003,0.0,0.0,0.0
2026-05-10 20:54:34.680,337,0.4705352,-0.7874159000000001,-1.3129434500000001,0.0,0.0,0.0
2026-05-10 20:54:34.690,338,0.5170184,-0.8120336,-1.2604434,0.0,0.0,0.0
2026-05-10 20:54:34.700,339,0.5170184,-0.8120336,-1.2604434,0.0,0.0,0.0
2026-05-10 20:54:34.710,340,0.5170184,-0.8120336,-1.2604434,0.0,0.0,0.0
2026-05-10 20:54:34.720,341,0.5170184,-0.8120336,-1.2604434,0.0,0.0,0.0
2026-05-10 20:54:34.730,342,0.5487564166666666,-0.8158715333333334,-1.2092048666666668,0.0,0.0,0.0
2026-05-10 20:54:34.740,343,0.61223245,-0.8235474,-1.1067278,0.0,0.0,0.0
2026-05-10 20:54:34.750,344,0.61223245,-0.8235474000000002,-1.1067278,0.0,0.0,0.0
2026-05-10 20:54:34.760,345,0.61223245,-0.8235474,-1.1067278,0.0,0.0,0.0
2026-05-10 20:54:34.770,346,0.7044546633333333,-0.8454944400000001,-1.0232110266666667,0.0,0.0,0.0
2026-05-10 20:54:34.780,347,0.75056577,-0.85646796,-0.98145264,0.0,0.0,0.0
2026-05-10 20:54:34.790,348,0.75056577,-0.8564679600000001,-0.98145264,0.0,0.0,0.0
2026-05-10 20:54:34.800,349,0.75056577,-0.8564679600000001,-0.98145264,0.0,0.0,0.0
2026-05-10 20:54:34.810,350,0.75056577,-0.85646796,-0.98145264,0.0,0.0,0.0
2026-05-10 20:54:34.820,351,0.75056577,-0.8564679600000001,-0.98145264,0.0,0.0,0.0
2026-05-10 20:54:34.830,352,0.75056577,-0.8564679600000001,-0.98145264,0.0,0.0,0.0
2026-05-10 20:54:34.840,353,0.75056577,-0.85646796,-0.98145264,0.0,0.0,0.0
2026-05-10 20:54:34.850,354,0.75056577,-0.8564679600000001,-0.98145264,0.0,0.0,0.0
2026-05-10 20:54:34.860,355,0.861521455,-0.8628440500000001,-0.91519114,0.0,0.0,0.0
2026-05-10 20:54:34.870,356,0.97247714,-0.86922014,-0.84892964,0.0,0.0,0.0
2026-05-10 20:54:34.880,357,0.97247714,-0.86922014,-0.84892964,0.0,0.0,0.0
2026-05-10 20:54:34.890,358,0.97247714,-0.86922014,-0.84892964,0.0,0.0,0.0
2026-05-10 20:54:34.900,359,0.97247714,-0.86922014,-0.84892964,0.0,0.0,0.0
2026-05-10 20:54:34.910,360,0.97247714,-0.86922014,-0.84892964,0.0,0.0,0.0
2026-05-10 20:54:34.920,361,0.97247714,-0.86922014,-0.84892964,0.0,0.0,0.0
2026-05-10 20:54:34.930,362,0.97247714,-0.86922014,-0.84892964,0.0,0.0,0.0
2026-05-10 20:54:34.940,363,0.97247714,-0.86922014,-0.84892964,0.0,0.0,0.0
2026-05-10 20:54:34.950,364,0.97247714,-0.86922014,-0.84892964,0.0,0.0,0.0
2026-05-10 20:54:34.960,365,0.97247714,-0.86922014,-0.84892964,0.0,0.0,0.0
2026-05-10 20:54:34.970,366,0.97247714,-0.86922014,-0.84892964,0.0,0.0,0.0
2026-05-10 20:54:34.980,367,1.1066973133333333,-0.91148318,-0.7249745133333333,0.0,0.0,0.0
2026-05-10 20:54:34.990,368,1.1738074,-0.9326146999999999,-0.66299695,0.0,0.0,0.0
2026-05-10 20:54:35.000,369,1.1738074,-0.9326147,-0.66299695,0.0,0.0,0.0
2026-05-10 20:54:35.010,370,1.1738074,-0.9326146999999999,-0.66299695,0.0,0.0,0.0
2026-05-10 20:54:35.020,371,1.1738074,-0.9326146999999999,-0.66299695,0.0,0.0,0.0
2026-05-10 20:54:35.030,372,1.1738074,-0.9326147,-0.66299695,0.0,0.0,0.0
2026-05-10 20:54:35.040,373,1.2274872666666667,-0.9366921266666667,-0.6375841166666666,0.0,0.0,0.0
2026-05-10 20:54:35.050,374,1.2543272,-0.93873084,-0.6248777,0.0,0.0,0.0
2026-05-10 20:54:35.060,375,1.2543272,-0.93873084,-0.6248777,0.0,0.0,0.0
2026-05-10 20:54:35.070,376,1.2543272,-0.93873084,-0.6248777,0.0,0.0,0.0
2026-05-10 20:54:35.080,377,1.2543272,-0.93873084,-0.6248777,0.0,0.0,0.0
2026-05-10 20:54:35.090,378,1.2543272,-0.93873084,-0.6248777,0.0,0.0,0.0
2026-05-10 20:54:35.100,379,1.2543272,-0.93873084,-0.6248777,0.0,0.0,0.0
2026-05-10 20:54:35.110,380,1.2543272,-0.93873084,-0.6248777,0.0,0.0,0.0
2026-05-10 20:54:35.120,381,1.2543272,-0.93873084,-0.6248777,0.0,0.0,0.0
2026-05-10 20:54:35.130,382,1.2543272,-0.93873084,-0.6248777,0.0,0.0,0.0
2026-05-10 20:54:35.140,383,1.2543272,-0.93873084,-0.6248777,0.0,0.0,0.0
2026-05-10 20:54:35.150,384,1.3283334,-1.0222172,-0.5812385,0.0,0.0,0.0
2026-05-10 20:54:35.160,385,1.3283334,-1.0222172,-0.5812385,0.0,0.0,0.0
2026-05-10 20:54:35.170,386,1.3283334,-1.0222172,-0.5812385,0.0,0.0,0.0
2026-05-10 20:54:35.180,387,1.3283334,-1.0222172,-0.5812385,0.0,0.0,0.0
2026-05-10 20:54:35.190,388,1.3283334,-1.0222172,-0.5812385,0.0,0.0,0.0
2026-05-10 20:54:35.200,389,1.3283334,-1.0222172,-0.5812385,0.0,0.0,0.0
2026-05-10 20:54:35.210,390,1.3283334,-1.0222172,-0.5812385,0.0,0.0,0.0
2026-05-10 20:54:35.220,391,1.4645259,-1.1442355,-0.5380275,0.0,0.0,0.0
2026-05-10 20:54:35.230,392,1.4645259,-1.1442355,-0.5380275,0.0,0.0,0.0
2026-05-10 20:54:35.240,393,1.4645259,-1.1442355,-0.5380275,0.0,0.0,0.0
2026-05-10 20:54:35.250,394,1.4645259,-1.1442355,-0.5380275,0.0,0.0,0.0
2026-05-10 20:54:35.260,395,1.4645259,-1.1442355,-0.5380275,0.0,0.0,0.0
2026-05-10 20:54:35.270,396,1.4645259,-1.1442355,-0.5380275,0.0,0.0,0.0
2026-05-10 20:54:35.280,397,1.4645259,-1.1442355,-0.5380275,0.0,0.0,0.0
2026-05-10 20:54:35.290,398,1.4645259,-1.1442355,-0.5380275,0.0,0.0,0.0
2026-05-10 20:54:35.300,399,1.4645259,-1.1442355,-0.5380275,0.0,0.0,0.0
2026-05-10 20:54:35.310,400,1.8474007,-1.2125382,-0.5714526,0.0,0.0,0.0
2026-05-10 20:54:35.320,401,1.8474007,-1.2125382,-0.5714526,0.0,0.0,0.0
2026-05-10 20:54:35.330,402,1.8474007,-1.2125382,-0.5714526,0.0,0.0,0.0
2026-05-10 20:54:35.340,403,1.8474007,-1.2125382,-0.5714526,0.0,0.0,0.0
2026-05-10 20:54:35.350,404,1.8474007,-1.2125382,-0.5714526,0.0,0.0,0.0
2026-05-10 20:54:35.360,405,1.8474007,-1.2125382,-0.5714526,0.0,0.0,0.0
2026-05-10 20:54:35.370,406,2.0656167666666665,-1.2841692666666666,-0.59652904,0.0,0.0,0.0
2026-05-10 20:54:35.380,407,2.1747248,-1.3199848,-0.60906726,0.0,0.0,0.0
2026-05-10 20:54:35.390,408,2.1747248,-1.3199848,-0.60906726,0.0,0.0,0.0
2026-05-10 20:54:35.400,409,2.1747248,-1.3199848,-0.60906726,0.0,0.0,0.0
2026-05-10 20:54:35.410,410,2.1747248,-1.3199848,-0.60906726,0.0,0.0,0.0
2026-05-10 20:54:35.420,411,2.1747248,-1.3199848,-0.60906726,0.0,0.0,0.0
2026-05-10 20:54:35.430,412,2.1747248,-1.3199848,-0.60906726,0.0,0.0,0.0
2026-05-10 20:54:35.440,413,2.1747248,-1.3199848,-0.60906726,0.0,0.0,0.0
2026-05-10 20:54:35.450,414,2.1747248,-1.3199848,-0.60906726,0.0,0.0,0.0
2026-05-10 20:54:35.460,415,2.3632568999999997,-1.3538762000000002,-0.61452598,0.0,0.0,0.0
2026-05-10 20:54:35.470,416,2.551789,-1.3877676,-0.6199847,0.0,0.0,0.0
2026-05-10 20:54:35.480,417,2.551789,-1.3877676,-0.6199847,0.0,0.0,0.0
2026-05-10 20:54:35.490,418,2.551789,-1.3877676,-0.6199847,0.0,0.0,0.0
2026-05-10 20:54:35.500,419,2.551789,-1.3877676,-0.6199847,0.0,0.0,0.0
2026-05-10 20:54:35.510,420,2.551789,-1.3877676,-0.6199847,0.0,0.0,0.0
2026-05-10 20:54:35.520,421,2.551789,-1.3877676,-0.6199847,0.0,0.0,0.0
2026-05-10 20:54:35.530,422,2.551789,-1.3877676,-0.6199847,0.0,0.0,0.0
2026-05-10 20:54:35.540,423,2.737314,-1.4392151333333334,-0.6457339400000001,0.0,0.0,0.0
2026-05-10 20:54:35.550,424,3.0062845,-1.5767227666666666,-0.6665596533333333,0.0,0.0,0.0
2026-05-10 20:54:35.560,425,3.0943884999999995,-1.6326147000000002,-0.6705352000000001,0.0,0.0,0.0
2026-05-10 20:54:35.570,426,3.0943885,-1.6326147,-0.6705352,0.0,0.0,0.0
2026-05-10 20:54:35.580,427,3.0943884999999995,-1.6326147000000002,-0.6705352000000001,0.0,0.0,0.0
2026-05-10 20:54:35.590,428,3.0943884999999995,-1.6326147000000002,-0.6705352000000001,0.0,0.0,0.0
2026-05-10 20:54:35.600,429,3.0943884999999995,-1.6326147000000002,-0.6705352000000001,0.0,0.0,0.0
2026-05-10 20:54:35.610,430,3.0943885,-1.6326147,-0.6705352,0.0,0.0,0.0
2026-05-10 20:54:35.620,431,3.0943884999999995,-1.6326147000000002,-0.6705352000000001,0.0,0.0,0.0
2026-05-10 20:54:35.630,432,3.0943884999999995,-1.6326147000000002,-0.6705352000000001,0.0,0.0,0.0
2026-05-10 20:54:35.640,433,3.0943884999999995,-1.6326147000000002,-0.6705352000000001,0.0,0.0,0.0
2026-05-10 20:54:35.650,434,3.0943885,-1.6326147,-0.6705352,0.0,0.0,0.0
2026-05-10 20:54:35.660,435,3.0943884999999995,-1.6326147000000002,-0.6705352000000001,0.0,0.0,0.0
2026-05-10 20:54:35.670,436,3.0943885,-1.6326147,-0.6705352,0.0,0.0,0.0
2026-05-10 20:54:35.680,437,3.0943884999999995,-1.6326147000000002,-0.6705352000000001,0.0,0.0,0.0
2026-05-10 20:54:35.690,438,3.0943884999999995,-1.6326147000000002,-0.6705352000000001,0.0,0.0,0.0
2026-05-10 20:54:35.700,439,2.9003518,-1.80944955,-0.7309366,0.0,0.0,0.0
2026-05-10 20:54:35.710,440,2.7649643666666663,-1.8943577666666667,-0.7546738533333334,0.0,0.0,0.0
2026-05-10 20:54:35.720,441,2.6235473,-1.9462843,-0.76188076,0.0,0.0,0.0
2026-05-10 20:54:35.730,442,2.6235473,-1.9462843,-0.76188076,0.0,0.0,0.0
2026-05-10 20:54:35.740,443,2.6589146,-2.130474,-0.76666665,0.0,0.0,0.0
2026-05-10 20:54:35.750,444,2.6589146,-2.130474,-0.76666665,0.0,0.0,0.0
2026-05-10 20:54:35.760,445,2.6589146,-2.130474,-0.76666665,0.0,0.0,0.0
2026-05-10 20:54:35.770,446,2.6589146,-2.130474,-0.76666665,0.0,0.0,0.0
2026-05-10 20:54:35.780,447,2.4144191,-2.0294877000000002,-0.76666665,0.0,0.0,0.0
2026-05-10 20:54:35.790,448,2.3329206,-1.9958256,-0.76666665,0.0,0.0,0.0
2026-05-10 20:54:35.800,449,2.3329206,-1.9958256,-0.76666665,0.0,0.0,0.0
2026-05-10 20:54:35.810,450,2.3329206,-1.9958256,-0.76666665,0.0,0.0,0.0
2026-05-10 20:54:35.820,451,2.3329206,-1.9958256,-0.76666665,0.0,0.0,0.0
2026-05-10 20:54:35.830,452,2.3329206,-1.9958256,-0.76666665,0.0,0.0,0.0
2026-05-10 20:54:35.840,453,2.3329206,-1.9958256,-0.76666665,0.0,0.0,0.0
2026-05-10 20:54:35.850,454,2.3329206,-1.9958256,-0.76666665,0.0,0.0,0.0
2026-05-10 20:54:35.860,455,2.332584066666667,-1.9837258,-0.77576959,0.0,0.0,0.0
2026-05-10 20:54:35.870,456,2.3324158,-1.9776759000000002,-0.78032106,0.0,0.0,0.0
2026-05-10 20:54:35.880,457,2.3324158,-1.9776759,-0.78032106,0.0,0.0,0.0
2026-05-10 20:54:35.890,458,2.3324158,-1.9776759000000002,-0.78032106,0.0,0.0,0.0
2026-05-10 20:54:35.900,459,2.2287817666666667,-2.0005454,-0.79051474,0.0,0.0,0.0
2026-05-10 20:54:35.910,460,2.0215137,-2.0462844,-0.8109021,0.0,0.0,0.0
2026-05-10 20:54:35.920,461,2.0215137,-2.0462844,-0.8109021,0.0,0.0,0.0
2026-05-10 20:54:35.930,462,2.0215137,-2.0462844,-0.8109021,0.0,0.0,0.0
2026-05-10 20:54:35.940,463,1.9246737666666665,-2.0947043666666665,-0.7186493166666666,0.0,0.0,0.0
2026-05-10 20:54:35.950,464,1.7309939000000003,-2.1915443,-0.53414375,0.0,0.0,0.0
2026-05-10 20:54:35.960,465,1.7309939,-2.1915443,-0.53414375,0.0,0.0,0.0
2026-05-10 20:54:35.970,466,1.5506320333333334,-2.2707797666666667,-0.26741081666666666,0.0,0.0,0.0
2026-05-10 20:54:35.980,467,1.1899083,-2.4292507,0.26605505,0.0,0.0,0.0
2026-05-10 20:54:35.990,468,1.1899083,-2.4292507,0.26605505,0.0,0.0,0.0
2026-05-10 20:54:36.000,469,1.1899083,-2.4292507,0.26605505,0.0,0.0,0.0
2026-05-10 20:54:36.010,470,1.1899083,-2.4292507,0.26605505,0.0,0.0,0.0
2026-05-10 20:54:36.020,471,1.1899083,-2.4292507,0.26605505,0.0,0.0,0.0
2026-05-10 20:54:36.030,472,0.9182416,-2.400199,0.5282416,0.0,0.0,0.0
2026-05-10 20:54:36.040,473,0.9182416,-2.400199,0.5282416,0.0,0.0,0.0
2026-05-10 20:54:36.050,474,0.9182416,-2.400199,0.5282416,0.0,0.0,0.0
2026-05-10 20:54:36.060,475,0.9182416,-2.400199,0.5282416,0.0,0.0,0.0
2026-05-10 20:54:36.070,476,0.9182416,-2.400199,0.5282416,0.0,0.0,0.0
2026-05-10 20:54:36.080,477,0.9182416,-2.400199,0.5282416,0.0,0.0,0.0
2026-05-10 20:54:36.090,478,0.9182416,-2.400199,0.5282416,0.0,0.0,0.0
2026-05-10 20:54:36.100,479,0.9182416,-2.400199,0.5282416,0.0,0.0,0.0
2026-05-10 20:54:36.110,480,0.9182416,-2.400199,0.5282416,0.0,0.0,0.0
2026-05-10 20:54:36.120,481,0.9182416,-2.400199,0.5282416,0.0,0.0,0.0
2026-05-10 20:54:36.130,482,0.9182416,-2.400199,0.5282416,0.0,0.0,0.0
2026-05-10 20:54:36.140,483,0.9182416,-2.400199,0.5282416,0.0,0.0,0.0
2026-05-10 20:54:36.150,484,0.9182416,-2.400199,0.5282416,0.0,0.0,0.0
2026-05-10 20:54:36.160,485,0.8445820666666667,-2.454837,0.68298164,0.0,0.0,0.0
2026-05-10 20:54:36.170,486,0.8077523000000001,-2.482156,0.76035166,0.0,0.0,0.0
2026-05-10 20:54:36.180,487,0.8077523,-2.482156,0.76035166,0.0,0.0,0.0
2026-05-10 20:54:36.190,488,0.8077523000000001,-2.482156,0.76035166,0.0,0.0,0.0
2026-05-10 20:54:36.200,489,0.8077523000000001,-2.482156,0.76035166,0.0,0.0,0.0
2026-05-10 20:54:36.210,490,0.8077523,-2.482156,0.76035166,0.0,0.0,0.0
2026-05-10 20:54:36.220,491,0.8077523000000001,-2.482156,0.76035166,0.0,0.0,0.0
2026-05-10 20:54:36.230,492,0.8077523000000001,-2.482156,0.76035166,0.0,0.0,0.0
2026-05-10 20:54:36.240,493,0.8077523000000001,-2.482156,0.76035166,0.0,0.0,0.0
2026-05-10 20:54:36.250,494,0.6414832,-2.4802294,0.9777828999999999,0.0,0.0,0.0
2026-05-10 20:54:36.260,495,0.6414832,-2.4802294,0.9777828999999999,0.0,0.0,0.0
2026-05-10 20:54:36.270,496,0.6414832,-2.4802294,0.9777828999999999,0.0,0.0,0.0
2026-05-10 20:54:36.280,497,0.5333639266666667,-2.4632365,1.0758766666666666,0.0,0.0,0.0
2026-05-10 20:54:36.290,498,0.31712538,-2.4292507,1.2720642,0.0,0.0,0.0
2026-05-10 20:54:36.300,499,0.31712538,-2.4292507,1.2720642,0.0,0.0,0.0
2026-05-10 20:54:36.310,500,0.31712538,-2.4292507,1.2720642,0.0,0.0,0.0
2026-05-10 20:54:36.320,501,0.31712538,-2.4292507,1.2720642,0.0,0.0,0.0
2026-05-10 20:54:36.330,502,0.31712538,-2.4292507,1.2720642,0.0,0.0,0.0
2026-05-10 20:54:36.340,503,0.31712538,-2.4292507,1.2720642,0.0,0.0,0.0
2026-05-10 20:54:36.350,504,0.31712538,-2.4292507,1.2720642,0.0,0.0,0.0
2026-05-10 20:54:36.360,505,0.31712538,-2.4292507,1.2720642,0.0,0.0,0.0
2026-05-10 20:54:36.370,506,0.31712538,-2.4292507,1.2720642,0.0,0.0,0.0
2026-05-10 20:54:36.380,507,0.31712538,-2.4292507,1.2720642,0.0,0.0,0.0
2026-05-10 20:54:36.390,508,0.31712538,-2.4292507,1.2720642,0.0,0.0,0.0
2026-05-10 20:54:36.400,509,0.26185015,-2.4103936999999998,1.273493875,0.0,0.0,0.0
2026-05-10 20:54:36.410,510,0.09602446,-2.3538227,1.2777829,0.0,0.0,0.0
2026-05-10 20:54:36.420,511,0.09602446000000002,-2.3538227,1.2777829,0.0,0.0,0.0
2026-05-10 20:54:36.430,512,0.09602446000000002,-2.3538227,1.2777829,0.0,0.0,0.0
2026-05-10 20:54:36.440,513,0.09602446000000002,-2.3538227,1.2777829,0.0,0.0,0.0
2026-05-10 20:54:36.450,514,-0.09235473999999999,-2.2908256999999996,1.2756014333333334,0.0,0.0,0.0
2026-05-10 20:54:36.460,515,-0.18654434,-2.2593272,1.2745107,0.0,0.0,0.0
2026-05-10 20:54:36.470,516,-0.3798165,-2.1927676,1.2025535,0.0,0.0,0.0
2026-05-10 20:54:36.480,517,-0.3798165,-2.1927676,1.2025535,0.0,0.0,0.0
2026-05-10 20:54:36.490,518,-0.3798165,-2.1927676,1.2025535,0.0,0.0,0.0
2026-05-10 20:54:36.500,519,-0.3798165,-2.1927676,1.2025535,0.0,0.0,0.0
2026-05-10 20:54:36.510,520,-0.5072375,-2.1493425333333334,1.1620438333333334,0.0,0.0,0.0
2026-05-10 20:54:36.520,521,-0.6215622000000001,-2.046177366666667,1.1024821666666667,0.0,0.0,0.0
2026-05-10 20:54:36.530,522,-0.7358869,-1.9430122,1.0429205,0.0,0.0,0.0
2026-05-10 20:54:36.540,523,-0.7358869,-1.9430122,1.0429205,0.0,0.0,0.0
2026-05-10 20:54:36.550,524,-0.7358869,-1.9430122,1.0429205,0.0,0.0,0.0
2026-05-10 20:54:36.560,525,-0.7358869,-1.9430122,1.0429205,0.0,0.0,0.0
2026-05-10 20:54:36.570,526,-0.7358869,-1.9430122,1.0429205,0.0,0.0,0.0
2026-05-10 20:54:36.580,527,-0.7358869,-1.9430122,1.0429205,0.0,0.0,0.0
2026-05-10 20:54:36.590,528,-0.7358869,-1.9430122,1.0429205,0.0,0.0,0.0
2026-05-10 20:54:36.600,529,-0.7358869,-1.9430122,1.0429205,0.0,0.0,0.0
2026-05-10 20:54:36.610,530,-0.7358869,-1.9430122,1.0429205,0.0,0.0,0.0
2026-05-10 20:54:36.620,531,-0.7358869,-1.9430122,1.0429205,0.0,0.0,0.0
2026-05-10 20:54:36.630,532,-0.7358869,-1.9430122,1.0429205,0.0,0.0,0.0
2026-05-10 20:54:36.640,533,-0.7358869,-1.9430122,1.0429205,0.0,0.0,0.0
2026-05-10 20:54:36.650,534,-0.7358869,-1.9430122,1.0429205,0.0,0.0,0.0
2026-05-10 20:54:36.660,535,-0.7358869,-1.9430122,1.0429205,0.0,0.0,0.0
2026-05-10 20:54:36.670,536,-0.7358869,-1.9430122,1.0429205,0.0,0.0,0.0
2026-05-10 20:54:36.680,537,-0.7358869,-1.9430122,1.0429205,0.0,0.0,0.0
2026-05-10 20:54:36.690,538,-0.7358869,-1.9430122,1.0429205,0.0,0.0,0.0
2026-05-10 20:54:36.700,539,-0.7358869,-1.9430122,1.0429205,0.0,0.0,0.0
2026-05-10 20:54:36.710,540,-0.75004584,-1.8742048999999998,1.0058104,0.0,0.0,0.0
2026-05-10 20:54:36.720,541,-0.7544343,-1.8588226,0.96707946,0.0,0.0,0.0
2026-05-10 20:54:36.730,542,-0.7544343,-1.8588226,0.96707946,0.0,0.0,0.0
2026-05-10 20:54:36.740,543,-0.7544343,-1.8588226,0.96707946,0.0,0.0,0.0
2026-05-10 20:54:36.750,544,-0.67267585,-1.8624924,0.9577982,0.0,0.0,0.0
2026-05-10 20:54:36.760,545,-0.67267585,-1.8624924,0.9577982,0.0,0.0,0.0
2026-05-10 20:54:36.770,546,-0.67267585,-1.8624924,0.9577982,0.0,0.0,0.0
2026-05-10 20:54:36.780,547,-0.67267585,-1.8624924,0.9577982,0.0,0.0,0.0
2026-05-10 20:54:36.790,548,-0.5384658566666666,-1.9610957333333332,0.9518858,0.0,0.0,0.0
2026-05-10 20:54:36.800,549,-0.39735472,-1.9958256,0.9480122300000001,0.0,0.0,0.0
2026-05-10 20:54:36.810,550,-0.39735472,-1.9958256,0.9480122300000001,0.0,0.0,0.0
2026-05-10 20:54:36.820,551,-0.39735472,-1.9958256,0.94801223,0.0,0.0,0.0
2026-05-10 20:54:36.830,552,-0.39735472,-1.9958256,0.9480122300000001,0.0,0.0,0.0
2026-05-10 20:54:36.840,553,-0.39735472,-1.9958256,0.9480122300000001,0.0,0.0,0.0
2026-05-10 20:54:36.850,554,-0.39735472,-1.9958256,0.94801223,0.0,0.0,0.0
2026-05-10 20:54:36.860,555,-0.39735472,-1.9958256,0.9480122300000001,0.0,0.0,0.0
2026-05-10 20:54:36.870,556,-0.39735472,-1.9958256,0.94801223,0.0,0.0,0.0
2026-05-10 20:54:36.880,557,-0.39735472,-1.9958256,0.94801223,0.0,0.0,0.0
2026-05-10 20:54:36.890,558,-0.39735472,-1.9958256,0.94801223,0.0,0.0,0.0
2026-05-10 20:54:36.900,559,-0.39735472,-1.9958256,0.94801223,0.0,0.0,0.0
2026-05-10 20:54:36.910,560,-0.37834096,-2.00974005,0.965344065,0.0,0.0,0.0
2026-05-10 20:54:36.920,561,-0.3593272,-2.0236545,0.9826759,0.0,0.0,0.0
2026-05-10 20:54:36.930,562,-0.3593272,-2.0236545,0.9826758999999999,0.0,0.0,0.0
2026-05-10 20:54:36.940,563,-0.3593272,-2.0236545,0.9826759,0.0,0.0,0.0
2026-05-10 20:54:36.950,564,-0.3593272,-2.0236545,0.9826759,0.0,0.0,0.0
2026-05-10 20:54:36.960,565,-0.3593272,-2.0236545,0.9826759,0.0,0.0,0.0
2026-05-10 20:54:36.970,566,-0.3593272,-2.0236545,0.9826758999999999,0.0,0.0,0.0
2026-05-10 20:54:36.980,567,-0.5130428,-2.154633,1.011422,0.0,0.0,0.0
2026-05-10 20:54:36.990,568,-0.5130428,-2.154633,1.011422,0.0,0.0,0.0
2026-05-10 20:54:37.000,569,-0.5130428,-2.154633,1.011422,0.0,0.0,0.0
2026-05-10 20:54:37.010,570,-0.5130428,-2.154633,1.011422,0.0,0.0,0.0
2026-05-10 20:54:37.020,571,-0.5130428,-2.154633,1.011422,0.0,0.0,0.0
2026-05-10 20:54:37.030,572,-0.6704434,-2.2132568,1.011422,0.0,0.0,0.0
2026-05-10 20:54:37.040,573,-0.6704434,-2.2132568,1.011422,0.0,0.0,0.0
2026-05-10 20:54:37.050,574,-0.992156,-2.3987105333333334,0.9796788933333334,0.0,0.0,0.0
2026-05-10 20:54:37.060,575,-1.1530123,-2.4914374,0.96380734,0.0,0.0,0.0
2026-05-10 20:54:37.070,576,-1.1530123,-2.4914374,0.9638073400000001,0.0,0.0,0.0
2026-05-10 20:54:37.080,577,-1.1530123,-2.4914374,0.9638073400000001,0.0,0.0,0.0
2026-05-10 20:54:37.090,578,-1.1530123,-2.4914374,0.9638073400000001,0.0,0.0,0.0
2026-05-10 20:54:37.100,579,-1.1530123,-2.4914374,0.96380734,0.0,0.0,0.0
2026-05-10 20:54:37.110,580,-1.4202906000000002,-2.5507646,0.89551985,0.0,0.0,0.0
2026-05-10 20:54:37.120,581,-1.4202906000000002,-2.5507646,0.89551985,0.0,0.0,0.0
2026-05-10 20:54:37.130,582,-1.4202906000000002,-2.5507646,0.89551985,0.0,0.0,0.0
2026-05-10 20:54:37.140,583,-1.5083372,-2.55295495,0.8697782725000001,0.0,0.0,0.0
2026-05-10 20:54:37.150,584,-1.772477,-2.559526,0.79255354,0.0,0.0,0.0
2026-05-10 20:54:37.160,585,-1.772477,-2.559526,0.79255354,0.0,0.0,0.0
2026-05-10 20:54:37.170,586,-1.772477,-2.559526,0.79255354,0.0,0.0,0.0
2026-05-10 20:54:37.180,587,-1.772477,-2.559526,0.79255354,0.0,0.0,0.0
2026-05-10 20:54:37.190,588,-1.772477,-2.559526,0.79255354,0.0,0.0,0.0
2026-05-10 20:54:37.200,589,-2.765649825,-2.189858575,0.8463302875000001,0.0,0.0,0.0
2026-05-10 20:54:37.210,590,-2.8245717999999997,-2.1437309,0.8788991,0.0,0.0,0.0
2026-05-10 20:54:37.220,591,-2.8733995333333335,-2.0311926666666666,0.9594648333333334,0.0,0.0,0.0
2026-05-10 20:54:37.230,592,-2.971055,-1.8061162,1.1205963,0.0,0.0,0.0
2026-05-10 20:54:37.240,593,-2.971055,-1.8061162,1.1205963,0.0,0.0,0.0
2026-05-10 20:54:37.250,594,-2.971055,-1.8061162,1.1205963,0.0,0.0,0.0
2026-05-10 20:54:37.260,595,-2.971055,-1.8061162,1.1205963,0.0,0.0,0.0
2026-05-10 20:54:37.270,596,-2.971055,-1.8061162,1.1205963,0.0,0.0,0.0
2026-05-10 20:54:37.280,597,-2.971055,-1.8061162,1.1205963,0.0,0.0,0.0
2026-05-10 20:54:37.290,598,-2.971055,-1.8061162,1.1205963,0.0,0.0,0.0
2026-05-10 20:54:37.300,599,-2.9840672666666666,-1.6738379333333333,1.1355453333333334,0.0,0.0,0.0
2026-05-10 20:54:37.310,600,-3.0100918,-1.4092814,1.1654434,0.0,0.0,0.0
2026-05-10 20:54:37.320,601,-3.0100918,-1.4092814,1.1654434,0.0,0.0,0.0
2026-05-10 20:54:37.330,602,-3.0100918,-1.4092814,1.1654434,0.0,0.0,0.0
2026-05-10 20:54:37.340,603,-3.0100918,-1.4092814,1.1654434,0.0,0.0,0.0
2026-05-10 20:54:37.350,604,-3.0100918,-1.4092814,1.1654434,0.0,0.0,0.0
2026-05-10 20:54:37.360,605,-3.0100918,-1.4092814,1.1654434,0.0,0.0,0.0
2026-05-10 20:54:37.370,606,-3.0100918,-1.4092814,1.1654434,0.0,0.0,0.0
2026-05-10 20:54:37.380,607,-3.0100918,-1.4092814,1.1654434,0.0,0.0,0.0
2026-05-10 20:54:37.390,608,-2.9802242999999997,-1.3409480333333335,1.1690468666666667,0.0,0.0,0.0
2026-05-10 20:54:37.400,609,-2.878527,-1.1547400333333335,1.1845412666666666,0.0,0.0,0.0
2026-05-10 20:54:37.410,610,-2.5859327,-0.9975535,1.1234404,0.0,0.0,0.0
2026-05-10 20:54:37.420,611,-2.5859327,-0.9975535,1.1234404,0.0,0.0,0.0
2026-05-10 20:54:37.430,612,-2.5859327,-0.9975535,1.1234404,0.0,0.0,0.0
2026-05-10 20:54:37.440,613,-2.5859327,-0.9975535,1.1234404,0.0,0.0,0.0
2026-05-10 20:54:37.450,614,-2.5859327,-0.9975535,1.1234404,0.0,0.0,0.0
2026-05-10 20:54:37.460,615,-2.5859327,-0.9975535,1.1234404,0.0,0.0,0.0
2026-05-10 20:54:37.470,616,-2.5859327,-0.9975535,1.1234404,0.0,0.0,0.0
2026-05-10 20:54:37.480,617,-2.5859327,-0.9975535,1.1234404,0.0,0.0,0.0
2026-05-10 20:54:37.490,618,-2.5859327,-0.9975535,1.1234404,0.0,0.0,0.0
2026-05-10 20:54:37.500,619,-2.5859327,-0.9975535,1.1234404,0.0,0.0,0.0
2026-05-10 20:54:37.510,620,-2.5859327,-0.9975535,1.1234404,0.0,0.0,0.0
2026-05-10 20:54:37.520,621,-2.5859327,-0.9975535,1.1234404,0.0,0.0,0.0
2026-05-10 20:54:37.530,622,-2.5859327,-0.9975535,1.1234404,0.0,0.0,0.0
2026-05-10 20:54:37.540,623,-2.5859327,-0.9975535,1.1234404,0.0,0.0,0.0
2026-05-10 20:54:37.550,624,-2.576896,-1.0298674666666667,1.0849796333333332,0.0,0.0,0.0
2026-05-10 20:54:37.560,625,-2.5588226,-1.0944954,1.0080581,0.0,0.0,0.0
2026-05-10 20:54:37.570,626,-2.5588226,-1.0944954,1.0080581,0.0,0.0,0.0
2026-05-10 20:54:37.580,627,-2.5588226,-1.0944954,1.0080581,0.0,0.0,0.0
2026-05-10 20:54:37.590,628,-2.5588226,-1.0944954,1.0080581,0.0,0.0,0.0
2026-05-10 20:54:37.600,629,-2.5588226,-1.0944954,1.0080581,0.0,0.0,0.0
2026-05-10 20:54:37.610,630,-2.5588226,-1.0944954,1.0080581,0.0,0.0,0.0
2026-05-10 20:54:37.620,631,-2.5588226,-1.0944954,1.0080581,0.0,0.0,0.0
2026-05-10 20:54:37.630,632,-2.5588226,-1.0944954,1.0080581,0.0,0.0,0.0
2026-05-10 20:54:37.640,633,-2.5588226,-1.0944954,1.0080581,0.0,0.0,0.0
2026-05-10 20:54:37.650,634,-2.5588226,-1.0944954,1.0080581,0.0,0.0,0.0
2026-05-10 20:54:37.660,635,-2.5588226,-1.0944954,1.0080581,0.0,0.0,0.0
2026-05-10 20:54:37.670,636,-2.5721750500000002,-1.1027255249999999,0.9909556749999999,0.0,0.0,0.0
2026-05-10 20:54:37.680,637,-2.6122324,-1.1274159,0.9396483999999999,0.0,0.0,0.0
2026-05-10 20:54:37.690,638,-2.6122324,-1.1274159,0.9396483999999999,0.0,0.0,0.0
2026-05-10 20:54:37.700,639,-2.931737866666667,-1.0827778333333333,0.8450917133333333,0.0,0.0,0.0
2026-05-10 20:54:37.710,640,-3.217844,-0.9949083,0.80377674,0.0,0.0,0.0
2026-05-10 20:54:37.720,641,-3.217844,-0.9949083,0.80377674,0.0,0.0,0.0
2026-05-10 20:54:37.730,642,-3.217844,-0.9949083,0.80377674,0.0,0.0,0.0
2026-05-10 20:54:37.740,643,-3.217844,-0.9949083,0.80377674,0.0,0.0,0.0
2026-05-10 20:54:37.750,644,-3.217844,-0.9949083,0.80377674,0.0,0.0,0.0
2026-05-10 20:54:37.760,645,-3.217844,-0.9949083,0.80377674,0.0,0.0,0.0
2026-05-10 20:54:37.770,646,-3.217844,-0.9949083,0.80377674,0.0,0.0,0.0
2026-05-10 20:54:37.780,647,-3.24699545,-0.960477865,0.788459465,0.0,0.0,0.0
2026-05-10 20:54:37.790,648,-3.3344498,-0.85718656,0.74250764,0.0,0.0,0.0
2026-05-10 20:54:37.800,649,-3.4408716,-0.6787257866666666,0.6336391200000001,0.0,0.0,0.0
2026-05-10 20:54:37.810,650,-3.4940824999999998,-0.5894954,0.57920486,0.0,0.0,0.0
2026-05-10 20:54:37.820,651,-3.4940824999999998,-0.5894954,0.57920486,0.0,0.0,0.0
2026-05-10 20:54:37.830,652,-3.4940824999999998,-0.5894954,0.57920486,0.0,0.0,0.0
2026-05-10 20:54:37.840,653,-3.4940824999999998,-0.5894954,0.57920486,0.0,0.0,0.0
2026-05-10 20:54:37.850,654,-3.4940825,-0.5894954,0.57920486,0.0,0.0,0.0
2026-05-10 20:54:37.860,655,-3.4940824999999998,-0.5894954,0.57920486,0.0,0.0,0.0
2026-05-10 20:54:37.870,656,-3.4940824999999998,-0.5894954,0.57920486,0.0,0.0,0.0
2026-05-10 20:54:37.880,657,-3.4940824999999998,-0.5894954,0.57920486,0.0,0.0,0.0
2026-05-10 20:54:37.890,658,-3.5564065,-0.5797094666666666,0.5624158866666668,0.0,0.0,0.0
2026-05-10 20:54:37.900,659,-3.5875685,-0.5748165,0.5540214,0.0,0.0,0.0
2026-05-10 20:54:37.910,660,-3.5875685,-0.5748165,0.5540214,0.0,0.0,0.0
2026-05-10 20:54:37.920,661,-3.5875685,-0.5748165,0.5540214,0.0,0.0,0.0
2026-05-10 20:54:37.930,662,-3.5875685,-0.5748165,0.5540214,0.0,0.0,0.0
2026-05-10 20:54:37.940,663,-3.5875685,-0.5748165,0.5540214,0.0,0.0,0.0
2026-05-10 20:54:37.950,664,-3.5875685,-0.5748165,0.5540214,0.0,0.0,0.0
2026-05-10 20:54:37.960,665,-3.59510695,-0.5737462,0.5535627000000001,0.0,0.0,0.0
2026-05-10 20:54:37.970,666,-3.6026454,-0.5726759,0.553104,0.0,0.0,0.0
2026-05-10 20:54:37.980,667,-3.6554485999999997,-0.5611264333333333,0.5648267166666666,0.0,0.0,0.0
2026-05-10 20:54:37.990,668,-3.8023088,-0.5225637,0.563369,0.0,0.0,0.0
2026-05-10 20:54:38.000,669,-3.8848164,-0.4916361,0.5135627,0.0,0.0,0.0
2026-05-10 20:54:38.010,670,-3.8848164,-0.4916361,0.5135627,0.0,0.0,0.0
2026-05-10 20:54:38.020,671,-3.8848164,-0.4916361,0.5135627,0.0,0.0,0.0
2026-05-10 20:54:38.030,672,-3.8848164,-0.4916361,0.5135627,0.0,0.0,0.0
2026-05-10 20:54:38.040,673,-3.951682,-0.41009176,0.27848622,0.0,0.0,0.0
2026-05-10 20:54:38.050,674,-3.951682,-0.41009176,0.27848622,0.0,0.0,0.0
2026-05-10 20:54:38.060,675,-3.951682,-0.41009176,0.27848622,0.0,0.0,0.0
2026-05-10 20:54:38.070,676,-3.9262996666666665,-0.4008155066666667,0.24807848,0.0,0.0,0.0
2026-05-10 20:54:38.080,677,-3.84764,-0.39374618333333333,0.18410295333333335,0.0,0.0,0.0
2026-05-10 20:54:38.090,678,-3.79185,-0.41671255,0.17778286,0.0,0.0,0.0
2026-05-10 20:54:38.100,679,-2.7711213333333333,-0.71341998,0.6093781933333334,0.0,0.0,0.0
2026-05-10 20:54:38.110,680,-3.6820236000000004,-0.5309531266666667,0.21491844666666668,0.0,0.0,0.0
2026-05-10 20:54:38.120,681,-3.601422,-0.61509174,0.2961315,0.0,0.0,0.0
2026-05-10 20:54:38.130,682,-3.601422,-0.61509174,0.2961315,0.0,0.0,0.0
2026-05-10 20:54:38.140,683,-3.601422,-0.61509174,0.2961315,0.0,0.0,0.0
2026-05-10 20:54:38.150,684,-3.601422,-0.61509174,0.2961315,0.0,0.0,0.0
2026-05-10 20:54:38.160,685,-3.601422,-0.61509174,0.2961315,0.0,0.0,0.0
2026-05-10 20:54:38.170,686,-3.44493105,-0.62387616,0.350259945,0.0,0.0,0.0
2026-05-10 20:54:38.180,687,-3.3927674,-0.6268043,0.36830276,0.0,0.0,0.0
2026-05-10 20:54:38.190,688,-3.3927674,-0.6268043,0.36830276,0.0,0.0,0.0
2026-05-10 20:54:38.200,689,-3.3927674,-0.6268043,0.36830276,0.0,0.0,0.0
2026-05-10 20:54:38.210,690,-3.3927674,-0.6268043,0.36830276,0.0,0.0,0.0
2026-05-10 20:54:38.220,691,-3.2678542,-0.6264679000000001,0.37957696,0.0,0.0,0.0
2026-05-10 20:54:38.230,692,-3.2053976,-0.6262997,0.38521406,0.0,0.0,0.0
2026-05-10 20:54:38.240,693,-3.2053976,-0.6262997,0.38521406,0.0,0.0,0.0
2026-05-10 20:54:38.250,694,-3.0361926999999995,-0.6255811,0.39643732,0.0,0.0,0.0
2026-05-10 20:54:38.260,695,-3.0361926999999995,-0.6255811,0.39643732,0.0,0.0,0.0
2026-05-10 20:54:38.270,696,-3.0361927,-0.6255811,0.39643732,0.0,0.0,0.0
2026-05-10 20:54:38.280,697,-3.0361926999999995,-0.6255811,0.39643732,0.0,0.0,0.0
2026-05-10 20:54:38.290,698,-3.0361927,-0.6255811,0.39643732,0.0,0.0,0.0
2026-05-10 20:54:38.300,699,-2.935132433333333,-0.6721356333333333,0.43693680666666673,0.0,0.0,0.0
2026-05-10 20:54:38.310,700,-2.770876533333334,-0.7127421333333332,0.5006473,0.0,0.0,0.0
2026-05-10 20:54:38.320,701,-2.397710275,-0.7723968,0.66712159,0.0,0.0,0.0
2026-05-10 20:54:38.330,702,-2.3428135,-0.8027523,0.7192660600000002,0.0,0.0,0.0
2026-05-10 20:54:38.340,703,-2.3428135,-0.8027523,0.7192660600000002,0.0,0.0,0.0
2026-05-10 20:54:38.350,704,-2.3062232,-0.81723243,0.78909785,0.0,0.0,0.0
2026-05-10 20:54:38.360,705,-2.3062232,-0.8172324300000001,0.78909785,0.0,0.0,0.0
2026-05-10 20:54:38.370,706,-2.3062232,-0.81723243,0.78909785,0.0,0.0,0.0
2026-05-10 20:54:38.380,707,-2.3062232,-0.8172324300000001,0.78909785,0.0,0.0,0.0
2026-05-10 20:54:38.390,708,-2.3062232,-0.8172324300000001,0.78909785,0.0,0.0,0.0
2026-05-10 20:54:38.400,709,-2.383792,-0.90041286,0.8435321,0.0,0.0,0.0
2026-05-10 20:54:38.410,710,-2.383792,-0.90041286,0.8435321,0.0,0.0,0.0
2026-05-10 20:54:38.420,711,-2.383792,-0.90041286,0.8435321,0.0,0.0,0.0
2026-05-10 20:54:38.430,712,-2.383792,-0.90041286,0.8435321,0.0,0.0,0.0
2026-05-10 20:54:38.440,713,-2.383792,-0.90041286,0.8435321,0.0,0.0,0.0
2026-05-10 20:54:38.450,714,-2.383792,-0.90041286,0.8435321,0.0,0.0,0.0
2026-05-10 20:54:38.460,715,-2.383792,-0.90041286,0.8435321,0.0,0.0,0.0
2026-05-10 20:54:38.470,716,-2.383792,-0.90041286,0.8435321,0.0,0.0,0.0
2026-05-10 20:54:38.480,717,-2.383792,-0.90041286,0.8435321,0.0,0.0,0.0
2026-05-10 20:54:38.490,718,-2.383792,-0.90041286,0.8435321,0.0,0.0,0.0
2026-05-10 20:54:38.500,719,-2.4943883,-0.9590214,0.8420948,0.0,0.0,0.0
2026-05-10 20:54:38.510,720,-2.4943883,-0.9590214,0.8420948,0.0,0.0,0.0
2026-05-10 20:54:38.520,721,-2.4943883,-0.9590214,0.8420948,0.0,0.0,0.0
2026-05-10 20:54:38.530,722,-2.528792,-0.99413605,0.80570335,0.0,0.0,0.0
2026-05-10 20:54:38.540,723,-2.5631957,-1.0292507,0.7693119,0.0,0.0,0.0
2026-05-10 20:54:38.550,724,-2.5631957,-1.0292507,0.7693119,0.0,0.0,0.0
2026-05-10 20:54:38.560,725,-2.5631957,-1.0292507,0.7693119,0.0,0.0,0.0
2026-05-10 20:54:38.570,726,-2.5631957,-1.0292507,0.7693119,0.0,0.0,0.0
2026-05-10 20:54:38.580,727,-2.5631957,-1.0292507,0.7693119,0.0,0.0,0.0
2026-05-10 20:54:38.590,728,-2.5631957,-1.0292507,0.7693119,0.0,0.0,0.0
2026-05-10 20:54:38.600,729,-2.5631957,-1.0292507,0.7693119,0.0,0.0,0.0
2026-05-10 20:54:38.610,730,-2.5766513,-1.1479051,0.6931651,0.0,0.0,0.0
2026-05-10 20:54:38.620,731,-2.5766513,-1.1479051,0.6931651,0.0,0.0,0.0
2026-05-10 20:54:38.630,732,-2.5766513,-1.1479051,0.6931651,0.0,0.0,0.0
2026-05-10 20:54:38.640,733,-2.5766513,-1.1479051,0.6931651,0.0,0.0,0.0
2026-05-10 20:54:38.650,734,-2.5766513,-1.1479051,0.6931651,0.0,0.0,0.0
2026-05-10 20:54:38.660,735,-2.5766513,-1.1479051,0.6931651,0.0,0.0,0.0
2026-05-10 20:54:38.670,736,-2.5766513,-1.1479051,0.6931651,0.0,0.0,0.0
2026-05-10 20:54:38.680,737,-2.5705352,-1.238945,0.6551529,0.0,0.0,0.0
2026-05-10 20:54:38.690,738,-2.5705352,-1.238945,0.6551529,0.0,0.0,0.0
2026-05-10 20:54:38.700,739,-2.5705352,-1.238945,0.6551529,0.0,0.0,0.0
2026-05-10 20:54:38.710,740,-2.4943883,-1.3268043,0.6221254,0.0,0.0,0.0
2026-05-10 20:54:38.720,741,-2.4943883,-1.3268043,0.6221254,0.0,0.0,0.0
2026-05-10 20:54:38.730,742,-2.3948367666666663,-1.405234433333333,0.5795158,0.0,0.0,0.0
2026-05-10 20:54:38.740,743,-2.345061,-1.4444495,0.558211,0.0,0.0,0.0
2026-05-10 20:54:38.750,744,-2.345061,-1.4444495,0.558211,0.0,0.0,0.0
2026-05-10 20:54:38.760,745,-2.299153833333333,-1.5078848,0.5563404766666666,0.0,0.0,0.0
2026-05-10 20:54:38.770,746,-2.1444152499999998,-1.7177140999999998,0.5796636075,0.0,0.0,0.0
2026-05-10 20:54:38.780,747,-2.1234405,-1.745367,0.588685,0.0,0.0,0.0
2026-05-10 20:54:38.790,748,-2.097014625,-1.76422405,0.60797781,0.0,0.0,0.0
2026-05-10 20:54:38.800,749,-2.017737,-1.8207952,0.66585624,0.0,0.0,0.0
2026-05-10 20:54:38.810,750,-2.017737,-1.8207952,0.66585624,0.0,0.0,0.0
2026-05-10 20:54:38.820,751,-2.017737,-1.8207952,0.66585624,0.0,0.0,0.0
2026-05-10 20:54:38.830,752,-1.9093806999999998,-1.8762997000000001,0.690978585,0.0,0.0,0.0
2026-05-10 20:54:38.840,753,-1.8010244,-1.9318042,0.71610093,0.0,0.0,0.0
2026-05-10 20:54:38.850,754,-1.8010244,-1.9318042,0.71610093,0.0,0.0,0.0
2026-05-10 20:54:38.860,755,-1.8010244,-1.9318042,0.71610093,0.0,0.0,0.0
2026-05-10 20:54:38.870,756,-1.8010244,-1.9318042,0.71610093,0.0,0.0,0.0
2026-05-10 20:54:38.880,757,-1.8010244,-1.9318042,0.71610093,0.0,0.0,0.0
2026-05-10 20:54:38.890,758,-1.8010244,-1.9318042,0.71610093,0.0,0.0,0.0
2026-05-10 20:54:38.900,759,-1.8010244,-1.9318042,0.71610093,0.0,0.0,0.0
2026-05-10 20:54:38.910,760,-1.7236544,-1.993578,0.7180428,0.0,0.0,0.0
2026-05-10 20:54:38.920,761,-1.7236544,-1.993578,0.7180428,0.0,0.0,0.0
2026-05-10 20:54:38.930,762,-1.7236544,-1.993578,0.7180428,0.0,0.0,0.0
2026-05-10 20:54:38.940,763,-1.7236544,-1.993578,0.7180428,0.0,0.0,0.0
2026-05-10 20:54:38.950,764,-1.7236544,-1.993578,0.7180428,0.0,0.0,0.0
2026-05-10 20:54:38.960,765,-1.7236544,-1.993578,0.7180428,0.0,0.0,0.0
2026-05-10 20:54:38.970,766,-1.7236544,-1.993578,0.7180428,0.0,0.0,0.0
2026-05-10 20:54:38.980,767,-1.6820107,-2.0328746,0.714166675,0.0,0.0,0.0
2026-05-10 20:54:38.990,768,-1.6403670000000001,-2.0721712,0.71029055,0.0,0.0,0.0
2026-05-10 20:54:39.000,769,-1.6403670000000001,-2.0721712,0.71029055,0.0,0.0,0.0
2026-05-10 20:54:39.010,770,-1.6403670000000001,-2.0721712,0.71029055,0.0,0.0,0.0
2026-05-10 20:54:39.020,771,-1.6403670000000001,-2.0721712,0.71029055,0.0,0.0,0.0
2026-05-10 20:54:39.030,772,-1.58019495,-2.1279854499999997,0.7047859625,0.0,0.0,0.0
2026-05-10 20:54:39.040,773,-1.5751806125,-2.1326366374999997,0.704327246875,0.0,0.0,0.0
2026-05-10 20:54:39.050,774,-1.570166275,-2.1372878249999996,0.70386853125,0.0,0.0,0.0
2026-05-10 20:54:39.060,775,-1.5651519375,-2.1419390125,0.703409815625,0.0,0.0,0.0
2026-05-10 20:54:39.070,776,-1.5601376,-2.1465902,0.7029511,0.0,0.0,0.0
2026-05-10 20:54:39.080,777,-1.5601376,-2.1465902,0.7029511,0.0,0.0,0.0
2026-05-10 20:54:39.090,778,-1.5601376,-2.1465902,0.7029511,0.0,0.0,0.0
2026-05-10 20:54:39.100,779,-1.5601376,-2.1465902,0.7029511,0.0,0.0,0.0
2026-05-10 20:54:39.110,780,-1.4444495,-2.2183487,0.6941896,0.0,0.0,0.0
2026-05-10 20:54:39.120,781,-1.4444495,-2.2183487,0.6941896,0.0,0.0,0.0
2026-05-10 20:54:39.130,782,-1.4444495,-2.2183487,0.6941896,0.0,0.0,0.0
2026-05-10 20:54:39.140,783,-1.4444495,-2.2183487,0.6941896,0.0,0.0,0.0
2026-05-10 20:54:39.150,784,-1.4444495,-2.2183487,0.6941896,0.0,0.0,0.0
2026-05-10 20:54:39.160,785,-1.4444495,-2.2183487,0.6941896,0.0,0.0,0.0
2026-05-10 20:54:39.170,786,-1.3865800000000001,-2.2430174,0.6879052,0.0,0.0,0.0
2026-05-10 20:54:39.180,787,-1.270841,-2.2923548,0.6753364,0.0,0.0,0.0
2026-05-10 20:54:39.190,788,-1.270841,-2.2923548,0.6753364,0.0,0.0,0.0
2026-05-10 20:54:39.200,789,-1.270841,-2.2923548,0.6753364,0.0,0.0,0.0
2026-05-10 20:54:39.210,790,-1.270841,-2.2923548,0.6753364,0.0,0.0,0.0
2026-05-10 20:54:39.220,791,-1.270841,-2.2923548,0.6753364,0.0,0.0,0.0
2026-05-10 20:54:39.230,792,-1.270841,-2.2923548,0.6753364,0.0,0.0,0.0
2026-05-10 20:54:39.240,793,-1.1295567,-2.30448,0.64392966,0.0,0.0,0.0
2026-05-10 20:54:39.250,794,-1.1295567,-2.30448,0.64392966,0.0,0.0,0.0
2026-05-10 20:54:39.260,795,-1.1295567,-2.30448,0.64392966,0.0,0.0,0.0
2026-05-10 20:54:39.270,796,-1.1295567,-2.30448,0.64392966,0.0,0.0,0.0
2026-05-10 20:54:39.280,797,-1.1295567,-2.30448,0.64392966,0.0,0.0,0.0
2026-05-10 20:54:39.290,798,-1.1295567,-2.30448,0.64392966,0.0,0.0,0.0
2026-05-10 20:54:39.300,799,-1.0309098749999999,-2.315668875,0.632821095,0.0,0.0,0.0
2026-05-10 20:54:39.310,800,-0.7349694000000001,-2.3492355,0.5994954,0.0,0.0,0.0
2026-05-10 20:54:39.320,801,-0.39154434,-2.2911315,0.39908257,0.0,0.0,0.0
2026-05-10 20:54:39.330,802,-0.39154434,-2.2911315,0.39908257,0.0,0.0,0.0
2026-05-10 20:54:39.340,803,-0.39154434,-2.2911315,0.39908257,0.0,0.0,0.0
2026-05-10 20:54:39.350,804,-0.39154434,-2.2911315,0.39908257,0.0,0.0,0.0
2026-05-10 20:54:39.360,805,-0.39154434,-2.2911315,0.39908257,0.0,0.0,0.0
2026-05-10 20:54:39.370,806,-0.39154434,-2.2911315,0.39908257,0.0,0.0,0.0
2026-05-10 20:54:39.380,807,-0.39154434,-2.2911315,0.39908257,0.0,0.0,0.0
2026-05-10 20:54:39.390,808,-0.39154434,-2.2911315,0.39908257,0.0,0.0,0.0
2026-05-10 20:54:39.400,809,-0.39154434,-2.2911315,0.39908257,0.0,0.0,0.0
2026-05-10 20:54:39.410,810,-0.39154434,-2.2911315,0.39908257,0.0,0.0,0.0
2026-05-10 20:54:39.420,811,-0.39154434,-2.2911315,0.39908257,0.0,0.0,0.0
2026-05-10 20:54:39.430,812,-0.39154434,-2.2911315,0.39908257,0.0,0.0,0.0
2026-05-10 20:54:39.440,813,-0.39154434,-2.2911315,0.39908257,0.0,0.0,0.0
2026-05-10 20:54:39.450,814,-0.39154434,-2.2911315,0.39908257,0.0,0.0,0.0
2026-05-10 20:54:39.460,815,-0.39154434,-2.2911315,0.39908257,0.0,0.0,0.0
2026-05-10 20:54:39.470,816,-0.39154434,-2.2911315,0.39908257,0.0,0.0,0.0
2026-05-10 20:54:39.480,817,-0.17625382999999997,-2.2720642,0.3785932699999999,0.0,0.0,0.0
2026-05-10 20:54:39.490,818,-0.17625382999999997,-2.2720642,0.3785932699999999,0.0,0.0,0.0
2026-05-10 20:54:39.500,819,-0.09035168466666667,-2.130851133333333,0.31919469,0.0,0.0,0.0
2026-05-10 20:54:39.510,820,-0.047400612,-2.0602446,0.2894954,0.0,0.0,0.0
2026-05-10 20:54:39.520,821,0.26299694,-1.9277217,0.22527525,0.0,0.0,0.0
2026-05-10 20:54:39.530,822,0.26299694,-1.9277217,0.22527525,0.0,0.0,0.0
2026-05-10 20:54:39.540,823,0.26299694,-1.9277217,0.22527525,0.0,0.0,0.0
2026-05-10 20:54:39.550,824,0.26299694,-1.9277217,0.22527525,0.0,0.0,0.0
2026-05-10 20:54:39.560,825,0.26299694,-1.9277217,0.22527525,0.0,0.0,0.0
2026-05-10 20:54:39.570,826,0.26299694,-1.9277217,0.22527525,0.0,0.0,0.0
2026-05-10 20:54:39.580,827,0.26299694,-1.9277217,0.22527525,0.0,0.0,0.0
2026-05-10 20:54:39.590,828,0.26299694,-1.9277217,0.22527525,0.0,0.0,0.0
2026-05-10 20:54:39.600,829,0.26299694,-1.9277217,0.22527525,0.0,0.0,0.0
2026-05-10 20:54:39.610,830,0.26299694,-1.9277217,0.22527525,0.0,0.0,0.0
2026-05-10 20:54:39.620,831,0.43506116,-1.8896024,0.15840977,0.0,0.0,0.0
2026-05-10 20:54:39.630,832,0.43506116,-1.8896024,0.15840977,0.0,0.0,0.0
2026-05-10 20:54:39.640,833,0.43506116,-1.8896024,0.15840977,0.0,0.0,0.0
2026-05-10 20:54:39.650,834,0.43506116,-1.8896024,0.15840977,0.0,0.0,0.0
2026-05-10 20:54:39.660,835,0.43506116,-1.8896024,0.15840977,0.0,0.0,0.0
2026-05-10 20:54:39.670,836,0.5011875733333334,-1.8778797,0.12011721666666668,0.0,0.0,0.0
2026-05-10 20:54:39.680,837,0.6334404,-1.8544343,0.04353210999999999,0.0,0.0,0.0
2026-05-10 20:54:39.690,838,0.6334404,-1.8544343,0.04353210999999999,0.0,0.0,0.0
2026-05-10 20:54:39.700,839,0.7945616666666666,-1.8481141666666667,-0.0047247700000000005,0.0,0.0,0.0
2026-05-10 20:54:39.710,840,0.8751223,-1.8449541,-0.02885321,0.0,0.0,0.0
2026-05-10 20:54:39.720,841,0.8751223,-1.8449541,-0.02885321,0.0,0.0,0.0
2026-05-10 20:54:39.730,842,0.8751223,-1.8449541,-0.02885321,0.0,0.0,0.0
2026-05-10 20:54:39.740,843,0.8751223,-1.8449541,-0.02885321,0.0,0.0,0.0
2026-05-10 20:54:39.750,844,0.8751223,-1.8449541,-0.02885321,0.0,0.0,0.0
2026-05-10 20:54:39.760,845,1.0614679,-1.8074923,-0.08711009,0.0,0.0,0.0
2026-05-10 20:54:39.770,846,1.3302803666666667,-1.7422680333333334,-0.18977573666666667,0.0,0.0,0.0
2026-05-10 20:54:39.780,847,1.8191997666666666,-1.5337105333333332,-0.36044342,0.0,0.0,0.0
2026-05-10 20:54:39.790,848,1.9103975,-1.5377218,-0.38185015,0.0,0.0,0.0
2026-05-10 20:54:39.800,849,1.9103975,-1.5377218,-0.38185015,0.0,0.0,0.0
2026-05-10 20:54:39.810,850,1.9795106999999998,-1.3616667,-0.38501528,0.0,0.0,0.0
2026-05-10 20:54:39.820,851,1.9795106999999998,-1.3616667,-0.38501528,0.0,0.0,0.0
2026-05-10 20:54:39.830,852,2.02038985,-1.38169725,-0.32665900999999997,0.0,0.0,0.0
2026-05-10 20:54:39.840,853,2.061269,-1.4017278,-0.26830274,0.0,0.0,0.0
2026-05-10 20:54:39.850,854,2.061269,-1.4017278,-0.26830274,0.0,0.0,0.0
2026-05-10 20:54:39.860,855,2.061269,-1.4017278,-0.26830274,0.0,0.0,0.0
2026-05-10 20:54:39.870,856,2.061269,-1.4017278,-0.26830274,0.0,0.0,0.0
2026-05-10 20:54:39.880,857,2.1166208,-1.4234405,-0.22435780000000002,0.0,0.0,0.0
2026-05-10 20:54:39.890,858,2.1166208,-1.4234405,-0.22435780000000002,0.0,0.0,0.0
2026-05-10 20:54:39.900,859,2.1166208,-1.4234405,-0.2243578,0.0,0.0,0.0
2026-05-10 20:54:39.910,860,2.1166208,-1.4234405,-0.22435780000000002,0.0,0.0,0.0
2026-05-10 20:54:39.920,861,2.1166208,-1.4234405,-0.22435780000000002,0.0,0.0,0.0
2026-05-10 20:54:39.930,862,2.1166208,-1.4234405,-0.22435780000000002,0.0,0.0,0.0
2026-05-10 20:54:39.940,863,2.1166208,-1.4234405,-0.22435780000000002,0.0,0.0,0.0
2026-05-10 20:54:39.950,864,2.1166208,-1.4234405,-0.2243578,0.0,0.0,0.0
2026-05-10 20:54:39.960,865,2.1166208,-1.4234405,-0.22435780000000002,0.0,0.0,0.0
2026-05-10 20:54:39.970,866,2.1166208,-1.4234405,-0.22435780000000002,0.0,0.0,0.0
2026-05-10 20:54:39.980,867,2.1479053,-1.2681957,-0.6234403,0.0,0.0,0.0
2026-05-10 20:54:39.990,868,2.1479053,-1.2681957,-0.6234403,0.0,0.0,0.0
2026-05-10 20:54:40.000,869,2.1479053,-1.2681957,-0.6234403,0.0,0.0,0.0
2026-05-10 20:54:40.010,870,2.1479053,-1.2681957,-0.6234403,0.0,0.0,0.0
2026-05-10 20:54:40.020,871,2.1479053,-1.2681957,-0.6234403,0.0,0.0,0.0
2026-05-10 20:54:40.030,872,2.1479053,-1.2681957,-0.6234403,0.0,0.0,0.0
2026-05-10 20:54:40.040,873,2.1479053,-1.2681957,-0.6234403,0.0,0.0,0.0
2026-05-10 20:54:40.050,874,2.1479053,-1.2681957,-0.6234403,0.0,0.0,0.0
2026-05-10 20:54:40.060,875,2.1479053,-1.2681957,-0.6234403,0.0,0.0,0.0
2026-05-10 20:54:40.070,876,2.164082666666667,-1.2602446666666667,-0.6841946466666666,0.0,0.0,0.0
2026-05-10 20:54:40.080,877,2.3504586,-1.1830734,-0.982263,0.0,0.0,0.0
2026-05-10 20:54:40.090,878,2.3504586,-1.1830734,-0.982263,0.0,0.0,0.0
2026-05-10 20:54:40.100,879,2.3504586,-1.1830734,-0.982263,0.0,0.0,0.0
2026-05-10 20:54:40.110,880,2.3504586,-1.1830734,-0.982263,0.0,0.0,0.0
2026-05-10 20:54:40.120,881,2.590627,-1.3390367,-0.9892967,0.0,0.0,0.0
2026-05-10 20:54:40.130,882,2.590627,-1.3390367,-0.9892967,0.0,0.0,0.0
2026-05-10 20:54:40.140,883,2.6815851,-1.3358460666666667,-1.0341846,0.0,0.0,0.0
2026-05-10 20:54:40.150,884,2.6462843,-1.2233486,-1.060046,0.0,0.0,0.0
2026-05-10 20:54:40.160,885,2.6462843,-1.2233486,-1.060046,0.0,0.0,0.0
2026-05-10 20:54:40.170,886,2.6409122666666667,-1.2272528,-1.0903874666666666,0.0,0.0,0.0
2026-05-10 20:54:40.180,887,2.6301682,-1.2350612,-1.1510704,0.0,0.0,0.0
2026-05-10 20:54:40.190,888,2.6301682,-1.2350612,-1.1510704,0.0,0.0,0.0
2026-05-10 20:54:40.200,889,2.6301682,-1.2350612,-1.1510704,0.0,0.0,0.0
2026-05-10 20:54:40.210,890,2.5400612,-1.2423089,-1.159633,0.0,0.0,0.0
2026-05-10 20:54:40.220,891,2.5400612,-1.2423089,-1.159633,0.0,0.0,0.0
2026-05-10 20:54:40.230,892,2.5400612,-1.2423089,-1.159633,0.0,0.0,0.0
2026-05-10 20:54:40.240,893,2.5400612,-1.2423089,-1.159633,0.0,0.0,0.0
2026-05-10 20:54:40.250,894,2.5400612,-1.2423089,-1.159633,0.0,0.0,0.0
2026-05-10 20:54:40.260,895,2.5400612,-1.2423089,-1.159633,0.0,0.0,0.0
2026-05-10 20:54:40.270,896,2.463476066666667,-1.2711161666666666,-1.0877369333333333,0.0,0.0,0.0
2026-05-10 20:54:40.280,897,2.40576455,-1.2897018,-1.00127672,0.0,0.0,0.0
2026-05-10 20:54:40.290,898,2.3658563,-1.2983333333333331,-0.9458715733333333,0.0,0.0,0.0
2026-05-10 20:54:40.300,899,2.3033638,-1.4173242000000001,-0.9143731,0.0,0.0,0.0
2026-05-10 20:54:40.310,900,2.3033638,-1.4173242,-0.9143731,0.0,0.0,0.0
2026-05-10 20:54:40.320,901,2.3033638,-1.4173242000000001,-0.9143731,0.0,0.0,0.0
2026-05-10 20:54:40.330,902,2.3033638,-1.4173242000000001,-0.9143731,0.0,0.0,0.0
2026-05-10 20:54:40.340,903,2.3033638,-1.4173242000000001,-0.9143731,0.0,0.0,0.0
2026-05-10 20:54:40.350,904,2.3033638,-1.4173242000000001,-0.9143731,0.0,0.0,0.0
2026-05-10 20:54:40.360,905,2.3033638,-1.4173242000000001,-0.9143731,0.0,0.0,0.0
2026-05-10 20:54:40.370,906,2.3033638,-1.4173242000000001,-0.9143731,0.0,0.0,0.0
2026-05-10 20:54:40.380,907,2.3033638,-1.4173242000000001,-0.9143731,0.0,0.0,0.0
2026-05-10 20:54:40.390,908,2.3033638,-1.4173242000000001,-0.9143731,0.0,0.0,0.0
2026-05-10 20:54:40.400,909,2.3033638,-1.4173242000000001,-0.9143731,0.0,0.0,0.0
2026-05-10 20:54:40.410,910,2.2481383,-1.3840176,-0.90478976,0.0,0.0,0.0
2026-05-10 20:54:40.420,911,2.0824618,-1.2840978,-0.87603974,0.0,0.0,0.0
2026-05-10 20:54:40.430,912,2.0824618,-1.2840978,-0.87603974,0.0,0.0,0.0
2026-05-10 20:54:40.440,913,2.0824618,-1.2840978,-0.87603974,0.0,0.0,0.0
2026-05-10 20:54:40.450,914,2.0824618,-1.2840978,-0.87603974,0.0,0.0,0.0
2026-05-10 20:54:40.460,915,2.0824618,-1.2840978,-0.87603974,0.0,0.0,0.0
2026-05-10 20:54:40.470,916,2.0824618,-1.2840978,-0.87603974,0.0,0.0,0.0
2026-05-10 20:54:40.480,917,2.0824618,-1.2840978,-0.87603974,0.0,0.0,0.0
2026-05-10 20:54:40.490,918,2.0824618,-1.2840978,-0.87603974,0.0,0.0,0.0
2026-05-10 20:54:40.500,919,2.190107,-1.5264068,-0.8086696999999999,0.0,0.0,0.0
2026-05-10 20:54:40.510,920,2.190107,-1.5264068,-0.8086696999999999,0.0,0.0,0.0
2026-05-10 20:54:40.520,921,2.190107,-1.5264068,-0.8086696999999999,0.0,0.0,0.0
2026-05-10 20:54:40.530,922,2.190107,-1.5264068,-0.8086697,0.0,0.0,0.0
2026-05-10 20:54:40.540,923,2.190107,-1.5264068,-0.8086696999999999,0.0,0.0,0.0
2026-05-10 20:54:40.550,924,2.190107,-1.5264068,-0.8086696999999999,0.0,0.0,0.0
2026-05-10 20:54:40.560,925,2.190107,-1.5264068,-0.8086696999999999,0.0,0.0,0.0
2026-05-10 20:54:40.570,926,2.190107,-1.5264068,-0.8086696999999999,0.0,0.0,0.0
2026-05-10 20:54:40.580,927,2.190107,-1.5264068,-0.8086697,0.0,0.0,0.0
2026-05-10 20:54:40.590,928,2.190107,-1.5264068,-0.8086696999999999,0.0,0.0,0.0
2026-05-10 20:54:40.600,929,2.5211008,-1.8794037,-0.7752294000000001,0.0,0.0,0.0
2026-05-10 20:54:40.610,930,2.5211008,-1.8794037,-0.7752294,0.0,0.0,0.0
2026-05-10 20:54:40.620,931,2.5211008,-1.8794037,-0.7752294000000001,0.0,0.0,0.0
2026-05-10 20:54:40.630,932,2.5211008,-1.8794037,-0.7752294000000001,0.0,0.0,0.0
2026-05-10 20:54:40.640,933,2.5211008,-1.8794037,-0.7752294000000001,0.0,0.0,0.0
2026-05-10 20:54:40.650,934,2.4434607333333336,-1.8364220333333332,-0.7429511,0.0,0.0,0.0
2026-05-10 20:54:40.660,935,2.2881806,-1.7504587,-0.6783945,0.0,0.0,0.0
2026-05-10 20:54:40.670,936,2.2881806,-1.7504587,-0.6783945,0.0,0.0,0.0
2026-05-10 20:54:40.680,937,2.2881806,-1.7504587,-0.6783945,0.0,0.0,0.0
2026-05-10 20:54:40.690,938,2.2881806,-1.7504587,-0.6783945,0.0,0.0,0.0
2026-05-10 20:54:40.700,939,2.2881806,-1.7504587,-0.6783945,0.0,0.0,0.0
2026-05-10 20:54:40.710,940,2.2881806,-1.7504587,-0.6783945,0.0,0.0,0.0
2026-05-10 20:54:40.720,941,2.2881806,-1.7504587,-0.6783945,0.0,0.0,0.0
2026-05-10 20:54:40.730,942,2.2881806,-1.7504587,-0.6783945,0.0,0.0,0.0
2026-05-10 20:54:40.740,943,2.2881806,-1.7504587,-0.6783945,0.0,0.0,0.0
2026-05-10 20:54:40.750,944,2.2783182,-1.7654702,-0.686980125,0.0,0.0,0.0
2026-05-10 20:54:40.760,945,2.248731,-1.8105047,-0.7127370000000001,0.0,0.0,0.0
2026-05-10 20:54:40.770,946,2.248731,-1.8105047,-0.7127370000000001,0.0,0.0,0.0
2026-05-10 20:54:40.780,947,2.248731,-1.8105047,-0.7127370000000001,0.0,0.0,0.0
2026-05-10 20:54:40.790,948,2.248731,-1.8105047,-0.7127370000000001,0.0,0.0,0.0
2026-05-10 20:54:40.800,949,2.1557111,-1.84638385,-0.730680425,0.0,0.0,0.0
2026-05-10 20:54:40.810,950,2.0626912,-1.882263,-0.74862385,0.0,0.0,0.0
2026-05-10 20:54:40.820,951,2.0626912,-1.882263,-0.74862385,0.0,0.0,0.0
2026-05-10 20:54:40.830,952,2.0626912,-1.882263,-0.74862385,0.0,0.0,0.0
2026-05-10 20:54:40.840,953,2.0626912,-1.882263,-0.74862385,0.0,0.0,0.0
2026-05-10 20:54:40.850,954,2.0626912,-1.882263,-0.74862385,0.0,0.0,0.0
2026-05-10 20:54:40.860,955,2.0626912,-1.882263,-0.74862385,0.0,0.0,0.0
2026-05-10 20:54:40.870,956,1.9716616333333334,-1.9181447666666667,-0.7513099,0.0,0.0,0.0
2026-05-10 20:54:40.880,957,1.7896025,-1.9899083,-0.756682,0.0,0.0,0.0
2026-05-10 20:54:40.890,958,1.7896025,-1.9899083,-0.756682,0.0,0.0,0.0
2026-05-10 20:54:40.900,959,1.6402344333333332,-2.0146484333333334,-0.7329612666666666,0.0,0.0,0.0
2026-05-10 20:54:40.910,960,1.5655504,-2.0270185,-0.7211009,0.0,0.0,0.0
2026-05-10 20:54:40.920,961,1.5655504,-2.0270185,-0.7211009,0.0,0.0,0.0
2026-05-10 20:54:40.930,962,1.5655504,-2.0270185,-0.7211009,0.0,0.0,0.0
2026-05-10 20:54:40.940,963,1.5655504,-2.0270185,-0.7211009,0.0,0.0,0.0
2026-05-10 20:54:40.950,964,1.5655504,-2.0270185,-0.7211009,0.0,0.0,0.0
2026-05-10 20:54:40.960,965,1.5655504,-2.0270185,-0.7211009,0.0,0.0,0.0
2026-05-10 20:54:40.970,966,1.4875687499999999,-2.0372096,-0.6846062500000001,0.0,0.0,0.0
2026-05-10 20:54:40.980,967,1.2536238,-2.0677829,-0.5751223,0.0,0.0,0.0
2026-05-10 20:54:40.990,968,1.2536238,-2.0677829,-0.5751223,0.0,0.0,0.0
2026-05-10 20:54:41.000,969,1.2536238,-2.0677829,-0.5751223,0.0,0.0,0.0
2026-05-10 20:54:41.010,970,1.2536238,-2.0677829,-0.5751223,0.0,0.0,0.0
2026-05-10 20:54:41.020,971,1.2183027,-2.0702829,-0.544365425,0.0,0.0,0.0
2026-05-10 20:54:41.030,972,1.1829816,-2.0727829,-0.51360855,0.0,0.0,0.0
2026-05-10 20:54:41.040,973,1.1476605,-2.0752829,-0.48285167500000004,0.0,0.0,0.0
2026-05-10 20:54:41.050,974,1.1123394,-2.0777829,-0.4520948,0.0,0.0,0.0
2026-05-10 20:54:41.060,975,1.1123394,-2.0777829,-0.4520948,0.0,0.0,0.0
2026-05-10 20:54:41.070,976,1.1123394,-2.0777829,-0.4520948,0.0,0.0,0.0
2026-05-10 20:54:41.080,977,1.1123394,-2.0777829,-0.4520948,0.0,0.0,0.0
2026-05-10 20:54:41.090,978,1.1123394,-2.0777829,-0.4520948,0.0,0.0,0.0
2026-05-10 20:54:41.100,979,1.1123394,-2.0777829,-0.4520948,0.0,0.0,0.0
2026-05-10 20:54:41.110,980,1.1123394,-2.0777829,-0.4520948,0.0,0.0,0.0
2026-05-10 20:54:41.120,981,1.1123394,-2.0777829,-0.4520948,0.0,0.0,0.0
2026-05-10 20:54:41.130,982,1.1123394,-2.0777829,-0.4520948,0.0,0.0,0.0
2026-05-10 20:54:41.140,983,1.1123394,-2.0777829,-0.4520948,0.0,0.0,0.0
2026-05-10 20:54:41.150,984,1.1123394,-2.0777829,-0.4520948,0.0,0.0,0.0
2026-05-10 20:54:41.160,985,0.9651375999999999,-2.0787919,-0.31590214,0.0,0.0,0.0
2026-05-10 20:54:41.170,986,0.9651375999999999,-2.0787919,-0.31590214,0.0,0.0,0.0
2026-05-10 20:54:41.180,987,0.9651375999999999,-2.0787919,-0.31590214,0.0,0.0,0.0
2026-05-10 20:54:41.190,988,0.9651376,-2.0787919,-0.31590214,0.0,0.0,0.0
2026-05-10 20:54:41.200,989,0.9651375999999999,-2.0787919,-0.31590214,0.0,0.0,0.0
2026-05-10 20:54:41.210,990,0.68103975,-2.0655503,-0.02232416,0.0,0.0,0.0
2026-05-10 20:54:41.220,991,0.5175280566666666,-2.0539244666666665,0.17064220333333335,0.0,0.0,0.0
2026-05-10 20:54:41.230,992,0.44087157,-2.0541284,0.27706423,0.0,0.0,0.0
2026-05-10 20:54:41.240,993,0.30662078,-2.016315,0.42671257,0.0,0.0,0.0
2026-05-10 20:54:41.250,994,0.30662078,-2.016315,0.42671257,0.0,0.0,0.0
2026-05-10 20:54:41.260,995,0.2754548825,-2.00978975,0.4443960475,0.0,0.0,0.0
2026-05-10 20:54:41.270,996,0.18195719,-1.990214,0.49744648,0.0,0.0,0.0
2026-05-10 20:54:41.280,997,0.18195719,-1.990214,0.49744648,0.0,0.0,0.0
2026-05-10 20:54:41.290,998,0.18195719,-1.990214,0.49744648,0.0,0.0,0.0
2026-05-10 20:54:41.300,999,0.18195719,-1.990214,0.49744648,0.0,0.0,0.0
2026-05-10 20:54:41.310,1000,0.18195719,-1.990214,0.49744648,0.0,0.0,0.0
2026-05-10 20:54:41.320,1001,0.18195719,-1.990214,0.49744648,0.0,0.0,0.0
