timestamp,id,acc_x,acc_y,acc_z,gyro_x,gyro_y,gyro_z
2026-05-10 20:55:58.770,1,0.11651376,0.26463303,0.94873095,0.0,0.0,0.0
2026-05-10 20:55:58.780,2,0.105606522,0.27132518,0.9733996333333333,0.0,0.0,0.0
2026-05-10 20:55:58.790,3,0.094699284,0.27801733,0.9980683166666666,0.0,0.0,0.0
2026-05-10 20:55:58.800,4,0.083792046,0.28470948,1.022737,0.0,0.0,0.0
2026-05-10 20:55:58.810,5,0.083792046,0.28470948,1.022737,0.0,0.0,0.0
2026-05-10 20:55:58.820,6,0.07186545,0.29591742,1.0509634,0.0,0.0,0.0
2026-05-10 20:55:58.830,7,0.05821101,0.29836392,1.0607493,0.0,0.0,0.0
2026-05-10 20:55:58.840,8,0.05821101,0.29836392,1.0607493,0.0,0.0,0.0
2026-05-10 20:55:58.850,9,0.05821101,0.29836392,1.0607493,0.0,0.0,0.0
2026-05-10 20:55:58.860,10,0.05821101,0.29836392,1.0607493,0.0,0.0,0.0
2026-05-10 20:55:58.870,11,0.05821101,0.29836392,1.0607493,0.0,0.0,0.0
2026-05-10 20:55:58.880,12,0.05821101,0.29836392,1.0607493,0.0,0.0,0.0
2026-05-10 20:55:58.890,13,0.05821101,0.29836392,1.0607493,0.0,0.0,0.0
2026-05-10 20:55:58.900,14,0.05821101,0.29836392,1.0607493,0.0,0.0,0.0
2026-05-10 20:55:58.910,15,0.05821101,0.29836392,1.0607493,0.0,0.0,0.0
2026-05-10 20:55:58.920,16,0.05821101,0.29836392,1.0607493,0.0,0.0,0.0
2026-05-10 20:55:58.930,17,0.05821101,0.29836392,1.0607493,0.0,0.0,0.0
2026-05-10 20:55:58.940,18,0.05821101,0.29836392,1.0607493,0.0,0.0,0.0
2026-05-10 20:55:58.950,19,0.05821101,0.29836392,1.0607493,0.0,0.0,0.0
2026-05-10 20:55:58.960,20,0.054281345,0.29775231,1.0833334,0.0,0.0,0.0
2026-05-10 20:55:58.970,21,0.05035168,0.2971407,1.1059175,0.0,0.0,0.0
2026-05-10 20:55:58.980,22,0.05035168,0.2971407,1.1059175,0.0,0.0,0.0
2026-05-10 20:55:58.990,23,0.0580504575,0.30030582,1.1276299500000002,0.0,0.0,0.0
2026-05-10 20:55:59.000,24,0.12680428,0.27022937,1.1146789,0.0,0.0,0.0
2026-05-10 20:55:59.010,25,0.12680428,0.27022937,1.1146789,0.0,0.0,0.0
2026-05-10 20:55:59.020,26,0.12680428,0.27022937,1.1146789,0.0,0.0,0.0
2026-05-10 20:55:59.030,27,0.12680428,0.27022937,1.1146789,0.0,0.0,0.0
2026-05-10 20:55:59.040,28,0.12680428,0.27022937,1.1146789,0.0,0.0,0.0
2026-05-10 20:55:59.050,29,0.12680428,0.27022937,1.1146789,0.0,0.0,0.0
2026-05-10 20:55:59.060,30,0.12680428,0.27022937,1.1146789,0.0,0.0,0.0
2026-05-10 20:55:59.070,31,0.157698775,0.262740845,1.0625343999999999,0.0,0.0,0.0
2026-05-10 20:55:59.080,32,0.16799694,0.26024467,1.0451529,0.0,0.0,0.0
2026-05-10 20:55:59.090,33,0.16799694,0.26024467,1.0451529,0.0,0.0,0.0
2026-05-10 20:55:59.100,34,0.16799694,0.26024467,1.0451529,0.0,0.0,0.0
2026-05-10 20:55:59.110,35,0.1786646266666667,0.26058614666666663,1.01831295,0.0,0.0,0.0
2026-05-10 20:55:59.120,36,0.2,0.2612691,0.96463305,0.0,0.0,0.0
2026-05-10 20:55:59.130,37,0.20000000000000004,0.2612691,0.9646330500000001,0.0,0.0,0.0
2026-05-10 20:55:59.140,38,0.20000000000000004,0.2612691,0.9646330500000001,0.0,0.0,0.0
2026-05-10 20:55:59.150,39,0.2,0.2612691,0.96463305,0.0,0.0,0.0
2026-05-10 20:55:59.160,40,0.20000000000000004,0.2612691,0.9646330500000001,0.0,0.0,0.0
2026-05-10 20:55:59.170,41,0.2,0.2612691,0.96463305,0.0,0.0,0.0
2026-05-10 20:55:59.180,42,0.20000000000000004,0.2612691,0.9646330500000001,0.0,0.0,0.0
2026-05-10 20:55:59.190,43,0.20000000000000004,0.2612691,0.9646330500000001,0.0,0.0,0.0
2026-05-10 20:55:59.200,44,0.2,0.2612691,0.96463305,0.0,0.0,0.0
2026-05-10 20:55:59.210,45,0.20000000000000004,0.2612691,0.9646330500000001,0.0,0.0,0.0
2026-05-10 20:55:59.220,46,0.20000000000000004,0.2612691,0.9646330500000001,0.0,0.0,0.0
2026-05-10 20:55:59.230,47,0.2,0.2612691,0.96463305,0.0,0.0,0.0
2026-05-10 20:55:59.240,48,0.20000000000000004,0.2612691,0.9646330500000001,0.0,0.0,0.0
2026-05-10 20:55:59.250,49,0.20000000000000004,0.2612691,0.9646330500000001,0.0,0.0,0.0
2026-05-10 20:55:59.260,50,0.2,0.2612691,0.96463305,0.0,0.0,0.0
2026-05-10 20:55:59.270,51,0.20081549333333334,0.26453108,0.9399643333333333,0.0,0.0,0.0
2026-05-10 20:55:59.280,52,0.20244648,0.27105504,0.8906269,0.0,0.0,0.0
2026-05-10 20:55:59.290,53,0.20244648,0.27105504,0.8906269,0.0,0.0,0.0
2026-05-10 20:55:59.300,54,0.20244648,0.27105504,0.8906269,0.0,0.0,0.0
2026-05-10 20:55:59.310,55,0.20244648,0.27105504,0.8906269,0.0,0.0,0.0
2026-05-10 20:55:59.320,56,0.20244648,0.27105504,0.8906269,0.0,0.0,0.0
2026-05-10 20:55:59.330,57,0.11773701,0.31814983,0.7722783,0.0,0.0,0.0
2026-05-10 20:55:59.340,58,0.11773700999999999,0.31814983,0.7722783,0.0,0.0,0.0
2026-05-10 20:55:59.350,59,0.11773701,0.31814983,0.7722783,0.0,0.0,0.0
2026-05-10 20:55:59.360,60,0.11773700999999999,0.31814983,0.7722783,0.0,0.0,0.0
2026-05-10 20:55:59.370,61,0.11773701,0.31814983,0.7722783,0.0,0.0,0.0
2026-05-10 20:55:59.380,62,0.11773700999999999,0.31814983,0.7722783,0.0,0.0,0.0
2026-05-10 20:55:59.390,63,0.11773700999999999,0.31814983,0.7722783,0.0,0.0,0.0
2026-05-10 20:55:59.400,64,0.11773700999999999,0.31814983,0.7722783,0.0,0.0,0.0
2026-05-10 20:55:59.410,65,0.109579515,0.32543576500000004,0.7722783,0.0,0.0,0.0
2026-05-10 20:55:59.420,66,0.10142202,0.3327217,0.7722783,0.0,0.0,0.0
2026-05-10 20:55:59.430,67,0.10142202,0.3327217,0.7722783,0.0,0.0,0.0
2026-05-10 20:55:59.440,68,0.10142202,0.3327217,0.7722783,0.0,0.0,0.0
2026-05-10 20:55:59.450,69,0.10142202,0.3327217,0.7722783,0.0,0.0,0.0
2026-05-10 20:55:59.460,70,0.10142202,0.3327217,0.7722783,0.0,0.0,0.0
2026-05-10 20:55:59.470,71,0.10142202,0.3327217,0.7722783,0.0,0.0,0.0
2026-05-10 20:55:59.480,72,0.10142202,0.3327217,0.7722783,0.0,0.0,0.0
2026-05-10 20:55:59.490,73,0.10142202,0.3327217,0.7722783,0.0,0.0,0.0
2026-05-10 20:55:59.500,74,0.10142202,0.3327217,0.7722783,0.0,0.0,0.0
2026-05-10 20:55:59.510,75,0.10142202,0.3327217,0.7722783,0.0,0.0,0.0
2026-05-10 20:55:59.520,76,0.10142202,0.3327217,0.7722783,0.0,0.0,0.0
2026-05-10 20:55:59.530,77,0.10142202,0.3327217,0.7722783,0.0,0.0,0.0
2026-05-10 20:55:59.540,78,0.07343017333333333,0.3370030466666667,0.8004128333333332,0.0,0.0,0.0
2026-05-10 20:55:59.550,79,0.05291029433333333,0.3374108066666666,0.8671101,0.0,0.0,0.0
2026-05-10 20:55:59.560,80,0.039862383,0.33394498,0.9723701,0.0,0.0,0.0
2026-05-10 20:55:59.570,81,0.039862383,0.33394498,0.9723701,0.0,0.0,0.0
2026-05-10 20:55:59.580,82,0.039862383,0.33394498,0.9723701,0.0,0.0,0.0
2026-05-10 20:55:59.590,83,0.039862383,0.33394498,0.9723701,0.0,0.0,0.0
2026-05-10 20:55:59.600,84,0.039862383,0.33394498,0.9723701,0.0,0.0,0.0
2026-05-10 20:55:59.610,85,0.054820334750000005,0.3314984925,0.971529125,0.0,0.0,0.0
2026-05-10 20:55:59.620,86,0.09969419,0.32415903,0.9690062,0.0,0.0,0.0
2026-05-10 20:55:59.630,87,0.09969419,0.32415903,0.9690062,0.0,0.0,0.0
2026-05-10 20:55:59.640,88,0.09969419,0.32415903,0.9690062,0.0,0.0,0.0
2026-05-10 20:55:59.650,89,0.09969419,0.32415903,0.9690062,0.0,0.0,0.0
2026-05-10 20:55:59.660,90,0.09969419,0.32415903,0.9690062,0.0,0.0,0.0
2026-05-10 20:55:59.670,91,0.09969419,0.32415903,0.9690062,0.0,0.0,0.0
2026-05-10 20:55:59.680,92,0.10254969650000001,0.3236238625,0.9601644425,0.0,0.0,0.0
2026-05-10 20:55:59.690,93,0.111116216,0.32201836,0.9336391699999999,0.0,0.0,0.0
2026-05-10 20:55:59.700,94,0.111116216,0.32201836,0.93363917,0.0,0.0,0.0
2026-05-10 20:55:59.710,95,0.111116216,0.32201836,0.9336391699999999,0.0,0.0,0.0
2026-05-10 20:55:59.720,96,0.111116216,0.32201836,0.9336391699999999,0.0,0.0,0.0
2026-05-10 20:55:59.730,97,0.111116216,0.32201836,0.93363917,0.0,0.0,0.0
2026-05-10 20:55:59.740,98,0.111116216,0.32201836,0.9336391699999999,0.0,0.0,0.0
2026-05-10 20:55:59.750,99,0.111116216,0.32201836,0.93363917,0.0,0.0,0.0
2026-05-10 20:55:59.760,100,0.111116216,0.32201836,0.9336391699999999,0.0,0.0,0.0
2026-05-10 20:55:59.770,101,0.111116216,0.32201836,0.93363917,0.0,0.0,0.0
2026-05-10 20:55:59.780,102,0.111116216,0.32201836,0.9336391699999999,0.0,0.0,0.0
2026-05-10 20:55:59.790,103,0.111116216,0.32201836,0.93363917,0.0,0.0,0.0
2026-05-10 20:55:59.800,104,0.11912844533333333,0.3186238533333334,0.89523955,0.0,0.0,0.0
2026-05-10 20:55:59.810,105,0.12313456,0.3169266,0.87603974,0.0,0.0,0.0
2026-05-10 20:55:59.820,106,0.12313456,0.3169266,0.87603974,0.0,0.0,0.0
2026-05-10 20:55:59.830,107,0.12313456,0.3169266,0.87603974,0.0,0.0,0.0
2026-05-10 20:55:59.840,108,0.11651376,0.311315,0.8472018,0.0,0.0,0.0
2026-05-10 20:55:59.850,109,0.10519877666666666,0.3122681,0.8454994666666668,0.0,0.0,0.0
2026-05-10 20:55:59.860,110,0.04353210999999999,0.32344037,0.8788991,0.0,0.0,0.0
2026-05-10 20:55:59.870,111,0.04353211,0.32344037,0.8788991,0.0,0.0,0.0
2026-05-10 20:55:59.880,112,0.04353210999999999,0.32344037,0.8788991,0.0,0.0,0.0
2026-05-10 20:55:59.890,113,0.04353210999999999,0.32344037,0.8788991,0.0,0.0,0.0
2026-05-10 20:55:59.900,114,0.04353211,0.32344037,0.8788991,0.0,0.0,0.0
2026-05-10 20:55:59.910,115,0.04353210999999999,0.32344037,0.8788991,0.0,0.0,0.0
2026-05-10 20:55:59.920,116,0.04353211,0.32344037,0.8788991,0.0,0.0,0.0
2026-05-10 20:55:59.930,117,0.04353210999999999,0.32344037,0.8788991,0.0,0.0,0.0
2026-05-10 20:55:59.940,118,0.04353210999999999,0.32344037,0.8788991,0.0,0.0,0.0
2026-05-10 20:55:59.950,119,0.04353211,0.32344037,0.8788991,0.0,0.0,0.0
2026-05-10 20:55:59.960,120,0.019701835,0.3272400625,0.89469801,0.0,0.0,0.0
2026-05-10 20:55:59.970,121,-0.004128439999999997,0.331039755,0.91049692,0.0,0.0,0.0
2026-05-10 20:55:59.980,122,-0.027958714999999995,0.3348394475,0.92629583,0.0,0.0,0.0
2026-05-10 20:55:59.990,123,-0.05178899,0.33863914,0.94209474,0.0,0.0,0.0
2026-05-10 20:56:00.000,124,-0.17455148,0.3449592266666667,0.98888376,0.0,0.0,0.0
2026-05-10 20:56:00.010,125,-0.29731397,0.35127931333333334,1.03567278,0.0,0.0,0.0
2026-05-10 20:56:00.020,126,-0.42007646,0.3575994,1.0824618,0.0,0.0,0.0
2026-05-10 20:56:00.030,127,-0.42007646,0.3575994,1.0824618,0.0,0.0,0.0
2026-05-10 20:56:00.040,128,-0.6623853,0.37328747,1.1197706,0.0,0.0,0.0
2026-05-10 20:56:00.050,129,-0.6623853,0.37328747,1.1197706,0.0,0.0,0.0
2026-05-10 20:56:00.060,130,-0.6623853,0.37328747,1.1197706,0.0,0.0,0.0
2026-05-10 20:56:00.070,131,-0.6623853,0.37328747,1.1197706,0.0,0.0,0.0
2026-05-10 20:56:00.080,132,-0.6623853,0.37328747,1.1197706,0.0,0.0,0.0
2026-05-10 20:56:00.090,133,-0.6623853,0.37328747,1.1197706,0.0,0.0,0.0
2026-05-10 20:56:00.100,134,-0.6623853,0.37328747,1.1197706,0.0,0.0,0.0
2026-05-10 20:56:00.110,135,-0.6623853,0.37328747,1.1197706,0.0,0.0,0.0
2026-05-10 20:56:00.120,136,-0.6623853,0.37328747,1.1197706,0.0,0.0,0.0
2026-05-10 20:56:00.130,137,-0.6623853,0.37328747,1.1197706,0.0,0.0,0.0
2026-05-10 20:56:00.140,138,-0.6623853,0.37328747,1.1197706,0.0,0.0,0.0
2026-05-10 20:56:00.150,139,-0.6623853,0.37328747,1.1197706,0.0,0.0,0.0
2026-05-10 20:56:00.160,140,-0.7138378999999999,0.3774923625,1.1204587,0.0,0.0,0.0
2026-05-10 20:56:00.170,141,-0.9784913666666668,0.40003568,1.122523,0.0,0.0,0.0
2026-05-10 20:56:00.180,142,-1.0336392,0.405,1.122523,0.0,0.0,0.0
2026-05-10 20:56:00.190,143,-1.0336392,0.405,1.122523,0.0,0.0,0.0
2026-05-10 20:56:00.200,144,-1.0336392,0.405,1.122523,0.0,0.0,0.0
2026-05-10 20:56:00.210,145,-1.0336392,0.405,1.122523,0.0,0.0,0.0
2026-05-10 20:56:00.220,146,-1.0336392,0.405,1.122523,0.0,0.0,0.0
2026-05-10 20:56:00.230,147,-1.0336392,0.405,1.122523,0.0,0.0,0.0
2026-05-10 20:56:00.240,148,-1.0336392,0.405,1.122523,0.0,0.0,0.0
2026-05-10 20:56:00.250,149,-1.0336392,0.405,1.122523,0.0,0.0,0.0
2026-05-10 20:56:00.260,150,-1.0336392,0.405,1.122523,0.0,0.0,0.0
2026-05-10 20:56:00.270,151,-1.0336392,0.405,1.122523,0.0,0.0,0.0
2026-05-10 20:56:00.280,152,-1.0336392,0.405,1.122523,0.0,0.0,0.0
2026-05-10 20:56:00.290,153,-1.0336392,0.405,1.122523,0.0,0.0,0.0
2026-05-10 20:56:00.300,154,-1.0336392,0.405,1.122523,0.0,0.0,0.0
2026-05-10 20:56:00.310,155,-1.0336392,0.405,1.122523,0.0,0.0,0.0
2026-05-10 20:56:00.320,156,-1.0336392,0.405,1.122523,0.0,0.0,0.0
2026-05-10 20:56:00.330,157,-1.1483486666666667,0.41002550666666665,1.1539195333333332,0.0,0.0,0.0
2026-05-10 20:56:00.340,158,-1.2057034,0.41253826,1.1696178,0.0,0.0,0.0
2026-05-10 20:56:00.350,159,-1.2057034,0.41253826,1.1696178,0.0,0.0,0.0
2026-05-10 20:56:00.360,160,-1.2852854666666667,0.47777778666666665,1.3223904666666666,0.0,0.0,0.0
2026-05-10 20:56:00.370,161,-1.3250765,0.51039755,1.3987768,0.0,0.0,0.0
2026-05-10 20:56:00.380,162,-1.3250765,0.51039755,1.3987768,0.0,0.0,0.0
2026-05-10 20:56:00.390,163,-1.3270183,0.5119266,1.4405656999999998,0.0,0.0,0.0
2026-05-10 20:56:00.400,164,-1.3270183,0.5119266,1.4405656999999998,0.0,0.0,0.0
2026-05-10 20:56:00.410,165,-1.3270183,0.5119266,1.4405657,0.0,0.0,0.0
2026-05-10 20:56:00.420,166,-1.3270183,0.5119266,1.4405656999999998,0.0,0.0,0.0
2026-05-10 20:56:00.430,167,-1.3270183,0.5119266,1.4405656999999998,0.0,0.0,0.0
2026-05-10 20:56:00.440,168,-1.3270183,0.5119266,1.4405657,0.0,0.0,0.0
2026-05-10 20:56:00.450,169,-1.3270183,0.5119266,1.4405656999999998,0.0,0.0,0.0
2026-05-10 20:56:00.460,170,-1.3270183,0.5119266,1.4405656999999998,0.0,0.0,0.0
2026-05-10 20:56:00.470,171,-1.2576911,0.44597858,1.5525994,0.0,0.0,0.0
2026-05-10 20:56:00.480,172,-1.2576911,0.44597858,1.5525994,0.0,0.0,0.0
2026-05-10 20:56:00.490,173,-1.2576911,0.44597858,1.5525994,0.0,0.0,0.0
2026-05-10 20:56:00.500,174,-1.2576911,0.44597858,1.5525994,0.0,0.0,0.0
2026-05-10 20:56:00.510,175,-1.2576911,0.44597858,1.5525994,0.0,0.0,0.0
2026-05-10 20:56:00.520,176,-1.2576911,0.44597858,1.5525994,0.0,0.0,0.0
2026-05-10 20:56:00.530,177,-1.2576911,0.44597858,1.5525994,0.0,0.0,0.0
2026-05-10 20:56:00.540,178,-1.2576911,0.44597858,1.5525994,0.0,0.0,0.0
2026-05-10 20:56:00.550,179,-1.2576911,0.44597858,1.5525994,0.0,0.0,0.0
2026-05-10 20:56:00.560,180,-1.2576911,0.44597858,1.5525994,0.0,0.0,0.0
2026-05-10 20:56:00.570,181,-1.2576911,0.44597858,1.5525994,0.0,0.0,0.0
2026-05-10 20:56:00.580,182,-1.2576911,0.44597858,1.5525994,0.0,0.0,0.0
2026-05-10 20:56:00.590,183,-0.9940825700000001,0.05351682,1.774205,0.0,0.0,0.0
2026-05-10 20:56:00.600,184,-0.9940825700000001,0.05351682,1.774205,0.0,0.0,0.0
2026-05-10 20:56:00.610,185,-0.99408257,0.05351682,1.774205,0.0,0.0,0.0
2026-05-10 20:56:00.620,186,-0.9940825700000001,0.05351682,1.774205,0.0,0.0,0.0
2026-05-10 20:56:00.630,187,-0.99408257,0.05351682,1.774205,0.0,0.0,0.0
2026-05-10 20:56:00.640,188,-0.6994954300000001,-0.03353211,1.9051987,0.0,0.0,0.0
2026-05-10 20:56:00.650,189,-0.6994954300000001,-0.03353211,1.9051987,0.0,0.0,0.0
2026-05-10 20:56:00.660,190,-0.69949543,-0.03353211,1.9051987,0.0,0.0,0.0
2026-05-10 20:56:00.670,191,-0.6994954300000001,-0.03353211,1.9051987,0.0,0.0,0.0
2026-05-10 20:56:00.680,192,-0.69949543,-0.03353211,1.9051987,0.0,0.0,0.0
2026-05-10 20:56:00.690,193,-0.6994954300000001,-0.03353211,1.9051987,0.0,0.0,0.0
2026-05-10 20:56:00.700,194,-0.6994954300000001,-0.03353211,1.9051987,0.0,0.0,0.0
2026-05-10 20:56:00.710,195,-0.69949543,-0.03353211,1.9051987,0.0,0.0,0.0
2026-05-10 20:56:00.720,196,-0.6994954300000001,-0.03353211,1.9051987,0.0,0.0,0.0
2026-05-10 20:56:00.730,197,-0.69949543,-0.03353211,1.9051987,0.0,0.0,0.0
2026-05-10 20:56:00.740,198,-0.6994954300000001,-0.03353211,1.9051987,0.0,0.0,0.0
2026-05-10 20:56:00.750,199,-0.69949543,-0.03353211,1.9051987,0.0,0.0,0.0
2026-05-10 20:56:00.760,200,-0.6994954300000001,-0.03353211,1.9051987,0.0,0.0,0.0
2026-05-10 20:56:00.770,201,-0.72790012,0.007956166666666667,1.8935779333333331,0.0,0.0,0.0
2026-05-10 20:56:00.780,202,-0.7847095,0.09093272,1.8703364,0.0,0.0,0.0
2026-05-10 20:56:00.790,203,-0.7847095,0.09093272000000001,1.8703364,0.0,0.0,0.0
2026-05-10 20:56:00.800,204,-0.88081042,0.17984327,1.81704515,0.0,0.0,0.0
2026-05-10 20:56:00.810,205,-0.91284406,0.20948011999999996,1.7992814,0.0,0.0,0.0
2026-05-10 20:56:00.820,206,-0.91284406,0.20948011999999996,1.7992814,0.0,0.0,0.0
2026-05-10 20:56:00.830,207,-0.91284406,0.20948012,1.7992814,0.0,0.0,0.0
2026-05-10 20:56:00.840,208,-0.91284406,0.20948011999999996,1.7992814,0.0,0.0,0.0
2026-05-10 20:56:00.850,209,-0.91284406,0.20948012,1.7992814,0.0,0.0,0.0
2026-05-10 20:56:00.860,210,-0.7627573999999999,0.2482823633333333,1.3695871999999998,0.0,0.0,0.0
2026-05-10 20:56:00.870,211,-0.46258408,0.32588685,0.5101988,0.0,0.0,0.0
2026-05-10 20:56:00.880,212,-0.58485856,0.30771789250000003,0.79019115,0.0,0.0,0.0
2026-05-10 20:56:00.890,213,-0.951682,0.25321102,1.6301682,0.0,0.0,0.0
2026-05-10 20:56:00.900,214,-0.951682,0.25321102,1.6301682,0.0,0.0,0.0
2026-05-10 20:56:00.910,215,-0.951682,0.25321102,1.6301682,0.0,0.0,0.0
2026-05-10 20:56:00.920,216,-0.9042813,0.31712538,1.2809327,0.0,0.0,0.0
2026-05-10 20:56:00.930,217,-0.9042813,0.31712538,1.2809327,0.0,0.0,0.0
2026-05-10 20:56:00.940,218,-0.9042813,0.31712538,1.2809327,0.0,0.0,0.0
2026-05-10 20:56:00.950,219,-0.9042813,0.31712538,1.2809327,0.0,0.0,0.0
2026-05-10 20:56:00.960,220,-0.9042813,0.31712538,1.2809327,0.0,0.0,0.0
2026-05-10 20:56:00.970,221,-0.9042813,0.31712538,1.2809327,0.0,0.0,0.0
2026-05-10 20:56:00.980,222,-0.8283027000000001,0.33211009666666663,1.1171559533333333,0.0,0.0,0.0
2026-05-10 20:56:00.990,223,-0.6763455,0.36207953,0.78960246,0.0,0.0,0.0
2026-05-10 20:56:01.000,224,-0.6763455,0.36207953,0.7896024599999999,0.0,0.0,0.0
2026-05-10 20:56:01.010,225,-0.6763455,0.36207953,0.78960246,0.0,0.0,0.0
2026-05-10 20:56:01.020,226,-0.6763455,0.36207953,0.7896024599999999,0.0,0.0,0.0
2026-05-10 20:56:01.030,227,-0.6763455,0.36207953,0.78960246,0.0,0.0,0.0
2026-05-10 20:56:01.040,228,-0.6763455,0.36207953,0.7896024599999999,0.0,0.0,0.0
2026-05-10 20:56:01.050,229,-0.6763455,0.36207953,0.7896024599999999,0.0,0.0,0.0
2026-05-10 20:56:01.060,230,-0.6763455,0.36207953,0.78960246,0.0,0.0,0.0
2026-05-10 20:56:01.070,231,-0.6285065833333333,0.36344037333333334,0.7295616733333333,0.0,0.0,0.0
2026-05-10 20:56:01.080,232,-0.53282875,0.36616206,0.6094801,0.0,0.0,0.0
2026-05-10 20:56:01.090,233,-0.53282875,0.36616206,0.6094801,0.0,0.0,0.0
2026-05-10 20:56:01.100,234,-0.53282875,0.36616206,0.6094801,0.0,0.0,0.0
2026-05-10 20:56:01.110,235,-0.44423547,0.2861315,0.39571866,0.0,0.0,0.0
2026-05-10 20:56:01.120,236,-0.44423547,0.2861315,0.39571866,0.0,0.0,0.0
2026-05-10 20:56:01.130,237,-0.43811926,0.25637615,0.27828744,0.0,0.0,0.0
2026-05-10 20:56:01.140,238,-0.43811925999999995,0.25637615,0.27828744,0.0,0.0,0.0
2026-05-10 20:56:01.150,239,-0.43811925999999995,0.25637615,0.27828744,0.0,0.0,0.0
2026-05-10 20:56:01.160,240,-0.43811925999999995,0.25637615,0.27828744,0.0,0.0,0.0
2026-05-10 20:56:01.170,241,-0.43811926,0.25637615,0.27828744,0.0,0.0,0.0
2026-05-10 20:56:01.180,242,-0.43811926,0.25637615,0.27828744,0.0,0.0,0.0
2026-05-10 20:56:01.190,243,-0.43811926,0.25637615,0.27828744,0.0,0.0,0.0
2026-05-10 20:56:01.200,244,-0.43811926,0.25637615,0.27828744,0.0,0.0,0.0
2026-05-10 20:56:01.210,245,-0.43811926,0.25637615,0.27828744,0.0,0.0,0.0
2026-05-10 20:56:01.220,246,-0.43811925999999995,0.25637615,0.27828744,0.0,0.0,0.0
2026-05-10 20:56:01.230,247,-0.44353214,0.19827217,0.26360857,0.0,0.0,0.0
2026-05-10 20:56:01.240,248,-0.4434301866666666,0.22008664666666666,0.2612640233333333,0.0,0.0,0.0
2026-05-10 20:56:01.250,249,-0.44322628,0.2637156,0.25657493,0.0,0.0,0.0
2026-05-10 20:56:01.260,250,-0.44322628,0.2637156,0.25657493,0.0,0.0,0.0
2026-05-10 20:56:01.270,251,-0.44322628,0.2637156,0.25657493,0.0,0.0,0.0
2026-05-10 20:56:01.280,252,-0.4456727933333333,0.2625535333333333,0.28294597666666665,0.0,0.0,0.0
2026-05-10 20:56:01.290,253,-0.44689605,0.2619725,0.2961315,0.0,0.0,0.0
2026-05-10 20:56:01.300,254,-0.44689605000000004,0.2619725,0.2961315,0.0,0.0,0.0
2026-05-10 20:56:01.310,255,-0.44689605000000004,0.2619725,0.2961315,0.0,0.0,0.0
2026-05-10 20:56:01.320,256,-0.39296636,0.2043884,0.30102447,0.0,0.0,0.0
2026-05-10 20:56:01.330,257,-0.39296636,0.2043884,0.30102447,0.0,0.0,0.0
2026-05-10 20:56:01.340,258,-0.39296636,0.2043884,0.30102447,0.0,0.0,0.0
2026-05-10 20:56:01.350,259,-0.30951069999999997,0.17088176666666666,0.24549949000000001,0.0,0.0,0.0
2026-05-10 20:56:01.360,260,-0.26778287,0.15412845,0.217737,0.0,0.0,0.0
2026-05-10 20:56:01.370,261,-0.26778287,0.15412845,0.21773699999999999,0.0,0.0,0.0
2026-05-10 20:56:01.380,262,-0.26778287,0.15412845,0.217737,0.0,0.0,0.0
2026-05-10 20:56:01.390,263,-0.23523445,0.09289501,0.21529052,0.0,0.0,0.0
2026-05-10 20:56:01.400,264,-0.21896024,0.06227828999999999,0.21406728,0.0,0.0,0.0
2026-05-10 20:56:01.410,265,-0.21896024,0.06227829,0.21406728,0.0,0.0,0.0
2026-05-10 20:56:01.420,266,-0.21896024,0.06227828999999999,0.21406728,0.0,0.0,0.0
2026-05-10 20:56:01.430,267,-0.20788480666666667,0.01912844333333333,0.21202854666666668,0.0,0.0,0.0
2026-05-10 20:56:01.440,268,-0.18573394,-0.06717125,0.20795108,0.0,0.0,0.0
2026-05-10 20:56:01.450,269,-0.18573394,-0.06717125,0.20795108000000004,0.0,0.0,0.0
2026-05-10 20:56:01.460,270,-0.125336388,-0.18211009,0.18369267,0.0,0.0,0.0
2026-05-10 20:56:01.470,271,-0.064938836,-0.29704893,0.15943426,0.0,0.0,0.0
2026-05-10 20:56:01.480,272,-0.064938836,-0.29704893,0.15943426,0.0,0.0,0.0
2026-05-10 20:56:01.490,273,-0.064938836,-0.29704893,0.15943426,0.0,0.0,0.0
2026-05-10 20:56:01.500,274,-0.064938836,-0.29704893,0.15943426,0.0,0.0,0.0
2026-05-10 20:56:01.510,275,-0.064938836,-0.29704893,0.15943426,0.0,0.0,0.0
2026-05-10 20:56:01.520,276,-0.064938836,-0.29704893,0.15943426,0.0,0.0,0.0
2026-05-10 20:56:01.530,277,-0.064938836,-0.29704893,0.15943426,0.0,0.0,0.0
2026-05-10 20:56:01.540,278,-0.064938836,-0.29704893,0.15943426,0.0,0.0,0.0
2026-05-10 20:56:01.550,279,-0.064938836,-0.29704893,0.15943426,0.0,0.0,0.0
2026-05-10 20:56:01.560,280,-0.064938836,-0.29704893,0.15943426,0.0,0.0,0.0
2026-05-10 20:56:01.570,281,0.072270642,-0.323448015,0.16467890000000002,0.0,0.0,0.0
2026-05-10 20:56:01.580,282,0.20948011999999996,-0.3498471,0.16992354,0.0,0.0,0.0
2026-05-10 20:56:01.590,283,0.20948012,-0.3498471,0.16992354,0.0,0.0,0.0
2026-05-10 20:56:01.600,284,0.20948012,-0.3498471,0.16992354,0.0,0.0,0.0
2026-05-10 20:56:01.610,285,0.20948011999999996,-0.3498471,0.16992354,0.0,0.0,0.0
2026-05-10 20:56:01.620,286,0.20948011999999996,-0.3498471,0.16992354,0.0,0.0,0.0
2026-05-10 20:56:01.630,287,0.20948012,-0.3498471,0.16992354,0.0,0.0,0.0
2026-05-10 20:56:01.640,288,0.32474005333333333,-0.3932721666666667,0.22327726666666667,0.0,0.0,0.0
2026-05-10 20:56:01.650,289,0.225244648,-0.3343578166666667,0.45177878,0.0,0.0,0.0
2026-05-10 20:56:01.660,290,0.089189604,-0.37717125,0.37512234,0.0,0.0,0.0
2026-05-10 20:56:01.670,291,0.15045871599999996,-0.36738022333333337,0.3710142733333333,0.0,0.0,0.0
2026-05-10 20:56:01.680,292,0.076253824,-0.41865444,0.24923548,0.0,0.0,0.0
2026-05-10 20:56:01.690,293,0.076253824,-0.41865444,0.24923547999999998,0.0,0.0,0.0
2026-05-10 20:56:01.700,294,0.076253824,-0.41865444,0.24923547999999998,0.0,0.0,0.0
2026-05-10 20:56:01.710,295,0.076253824,-0.41865444,0.24923548,0.0,0.0,0.0
2026-05-10 20:56:01.720,296,0.076253824,-0.41865444,0.24923547999999998,0.0,0.0,0.0
2026-05-10 20:56:01.730,297,0.076253824,-0.41865444,0.24923547999999998,0.0,0.0,0.0
2026-05-10 20:56:01.740,298,0.228922016,-0.6312729475000001,0.1509212605,0.0,0.0,0.0
2026-05-10 20:56:01.750,299,0.51120794,-0.7215137500000001,0.118149854,0.0,0.0,0.0
2026-05-10 20:56:01.760,300,0.51120794,-0.72151375,0.118149854,0.0,0.0,0.0
2026-05-10 20:56:01.770,301,0.51120794,-0.7215137500000001,0.118149854,0.0,0.0,0.0
2026-05-10 20:56:01.780,302,0.51120794,-0.7215137500000001,0.118149854,0.0,0.0,0.0
2026-05-10 20:56:01.790,303,0.51120794,-0.72151375,0.118149854,0.0,0.0,0.0
2026-05-10 20:56:01.800,304,0.51120794,-0.7215137500000001,0.118149854,0.0,0.0,0.0
2026-05-10 20:56:01.810,305,0.51120794,-0.7215137500000001,0.118149854,0.0,0.0,0.0
2026-05-10 20:56:01.820,306,0.51120794,-0.72151375,0.118149854,0.0,0.0,0.0
2026-05-10 20:56:01.830,307,0.51120794,-0.7215137500000001,0.118149854,0.0,0.0,0.0
2026-05-10 20:56:01.840,308,0.6246636,-0.6266055,0.37298164000000006,0.0,0.0,0.0
2026-05-10 20:56:01.850,309,0.6246636,-0.6266055,0.37298164,0.0,0.0,0.0
2026-05-10 20:56:01.860,310,0.6246636,-0.6266055,0.37298164000000006,0.0,0.0,0.0
2026-05-10 20:56:01.870,311,0.6246636,-0.6266055,0.37298164,0.0,0.0,0.0
2026-05-10 20:56:01.880,312,0.6246636,-0.6266055,0.37298164000000006,0.0,0.0,0.0
2026-05-10 20:56:01.890,313,0.6246636,-0.6266055,0.37298164000000006,0.0,0.0,0.0
2026-05-10 20:56:01.900,314,0.5834595,-0.68478213,0.5810894725,0.0,0.0,0.0
2026-05-10 20:56:01.910,315,0.5697248,-0.7041743400000001,0.65045875,0.0,0.0,0.0
2026-05-10 20:56:01.920,316,0.5697248,-0.70417434,0.65045875,0.0,0.0,0.0
2026-05-10 20:56:01.930,317,0.5697248,-0.7041743400000001,0.65045875,0.0,0.0,0.0
2026-05-10 20:56:01.940,318,0.5697248,-0.7041743400000001,0.65045875,0.0,0.0,0.0
2026-05-10 20:56:01.950,319,0.5697248,-0.70417434,0.65045875,0.0,0.0,0.0
2026-05-10 20:56:01.960,320,0.37448523333333333,-0.7194648466666665,0.81450565,0.0,0.0,0.0
2026-05-10 20:56:01.970,321,0.27686545,-0.7271101,0.8965291,0.0,0.0,0.0
2026-05-10 20:56:01.980,322,0.27686545,-0.7271101,0.8965291,0.0,0.0,0.0
2026-05-10 20:56:01.990,323,0.27686545,-0.7271101,0.8965291,0.0,0.0,0.0
2026-05-10 20:56:02.000,324,0.27686545,-0.7271101,0.8965291,0.0,0.0,0.0
2026-05-10 20:56:02.010,325,0.11651376,-0.6670795,0.90264523,0.0,0.0,0.0
2026-05-10 20:56:02.020,326,-0.02599388333333334,-0.63982669,0.88766052,0.0,0.0,0.0
2026-05-10 20:56:02.030,327,-0.47155964,-0.61977065,0.9872629600000001,0.0,0.0,0.0
2026-05-10 20:56:02.040,328,-0.47155964,-0.61977065,0.98726296,0.0,0.0,0.0
2026-05-10 20:56:02.050,329,-0.47155964,-0.61977065,0.9872629600000001,0.0,0.0,0.0
2026-05-10 20:56:02.060,330,-0.47155964,-0.61977065,0.9872629600000001,0.0,0.0,0.0
2026-05-10 20:56:02.070,331,-0.47155964,-0.61977065,0.98726296,0.0,0.0,0.0
2026-05-10 20:56:02.080,332,-0.42018348,-0.62412335,1.1039398533333333,0.0,0.0,0.0
2026-05-10 20:56:02.090,333,-0.3944954,-0.6262997,1.1622783,0.0,0.0,0.0
2026-05-10 20:56:02.100,334,-0.3944954,-0.6262997,1.1622783,0.0,0.0,0.0
2026-05-10 20:56:02.110,335,-0.3436595333333334,-0.6316717666666666,1.2731243666666667,0.0,0.0,0.0
2026-05-10 20:56:02.120,336,-0.3182416,-0.6343578,1.3285474,0.0,0.0,0.0
2026-05-10 20:56:02.130,337,-0.3182416,-0.6343578,1.3285474,0.0,0.0,0.0
2026-05-10 20:56:02.140,338,-0.3182416,-0.6343578,1.3285474,0.0,0.0,0.0
2026-05-10 20:56:02.150,339,-0.3182416,-0.6343578,1.3285474,0.0,0.0,0.0
2026-05-10 20:56:02.160,340,-0.3182416,-0.6343578,1.3285474,0.0,0.0,0.0
2026-05-10 20:56:02.170,341,-0.3182416,-0.6343578,1.3285474,0.0,0.0,0.0
2026-05-10 20:56:02.180,342,-0.3182416,-0.6343578,1.3285474,0.0,0.0,0.0
2026-05-10 20:56:02.190,343,-0.3866106,-0.5491386666666666,1.3888939999999999,0.0,0.0,0.0
2026-05-10 20:56:02.200,344,-0.42079510000000003,-0.5065291,1.4190673,0.0,0.0,0.0
2026-05-10 20:56:02.210,345,-0.420259935,-0.5063226749999999,1.41985475,0.0,0.0,0.0
2026-05-10 20:56:02.220,346,-0.41865444,-0.5057034,1.4222171,0.0,0.0,0.0
2026-05-10 20:56:02.230,347,-0.41865444,-0.5057034,1.4222171,0.0,0.0,0.0
2026-05-10 20:56:02.240,348,-0.41865444,-0.5057034,1.4222171,0.0,0.0,0.0
2026-05-10 20:56:02.250,349,-0.41865444,-0.5057034,1.4222171,0.0,0.0,0.0
2026-05-10 20:56:02.260,350,-0.41865444,-0.5057034,1.4222171,0.0,0.0,0.0
2026-05-10 20:56:02.270,351,-0.41865444,-0.5057034,1.4222171,0.0,0.0,0.0
2026-05-10 20:56:02.280,352,-0.41865444,-0.5057034,1.4222171,0.0,0.0,0.0
2026-05-10 20:56:02.290,353,-0.41865444,-0.5057034,1.4222171,0.0,0.0,0.0
2026-05-10 20:56:02.300,354,-0.41865444,-0.5057034,1.4222171,0.0,0.0,0.0
2026-05-10 20:56:02.310,355,-0.41865444,-0.5057034,1.4222171,0.0,0.0,0.0
2026-05-10 20:56:02.320,356,-0.41668196,-0.5078440666666667,1.4403618333333332,0.0,0.0,0.0
2026-05-10 20:56:02.330,357,-0.4127370000000001,-0.5121254,1.4766513,0.0,0.0,0.0
2026-05-10 20:56:02.340,358,-0.4127370000000001,-0.5121254,1.4766513,0.0,0.0,0.0
2026-05-10 20:56:02.350,359,-0.4127370000000001,-0.5121254,1.4766513,0.0,0.0,0.0
2026-05-10 20:56:02.360,360,-0.412737,-0.5121254,1.4766513,0.0,0.0,0.0
2026-05-10 20:56:02.370,361,-0.4127370000000001,-0.5121254,1.4766513,0.0,0.0,0.0
2026-05-10 20:56:02.380,362,-0.4127370000000001,-0.5121254,1.4766513,0.0,0.0,0.0
2026-05-10 20:56:02.390,363,-0.4127370000000001,-0.5121254,1.4766513,0.0,0.0,0.0
2026-05-10 20:56:02.400,364,-0.4127370000000001,-0.5121254,1.4766513,0.0,0.0,0.0
2026-05-10 20:56:02.410,365,-0.4771636,-0.4767049,1.4785932000000002,0.0,0.0,0.0
2026-05-10 20:56:02.420,366,-0.5415902,-0.4412844,1.4805351,0.0,0.0,0.0
2026-05-10 20:56:02.430,367,-0.5415902,-0.4412844,1.4805351,0.0,0.0,0.0
2026-05-10 20:56:02.440,368,-0.5415902,-0.4412844,1.4805351,0.0,0.0,0.0
2026-05-10 20:56:02.450,369,-0.5415902,-0.4412844,1.4805351,0.0,0.0,0.0
2026-05-10 20:56:02.460,370,-0.5415902,-0.4412844,1.4805351,0.0,0.0,0.0
2026-05-10 20:56:02.470,371,-0.5415902,-0.4412844,1.4805351,0.0,0.0,0.0
2026-05-10 20:56:02.480,372,-0.600917425,-0.41659020750000003,1.463027475,0.0,0.0,0.0
2026-05-10 20:56:02.490,373,-0.7788991,-0.34250763,1.4105046,0.0,0.0,0.0
2026-05-10 20:56:02.500,374,-0.7788991,-0.34250763,1.4105046,0.0,0.0,0.0
2026-05-10 20:56:02.510,375,-0.7788991,-0.34250763,1.4105046,0.0,0.0,0.0
2026-05-10 20:56:02.520,376,-0.7788991,-0.34250763,1.4105046,0.0,0.0,0.0
2026-05-10 20:56:02.530,377,-0.7788991,-0.34250763,1.4105046,0.0,0.0,0.0
2026-05-10 20:56:02.540,378,-0.7788991,-0.34250763,1.4105046,0.0,0.0,0.0
2026-05-10 20:56:02.550,379,-0.7788991,-0.34250763,1.4105046,0.0,0.0,0.0
2026-05-10 20:56:02.560,380,-0.7788991,-0.34250763,1.4105046,0.0,0.0,0.0
2026-05-10 20:56:02.570,381,-0.7788991,-0.34250763,1.4105046,0.0,0.0,0.0
2026-05-10 20:56:02.580,382,-0.7788991,-0.34250763,1.4105046,0.0,0.0,0.0
2026-05-10 20:56:02.590,383,-0.7788991,-0.34250763,1.4105046,0.0,0.0,0.0
2026-05-10 20:56:02.600,384,-0.7788991,-0.34250763,1.4105046,0.0,0.0,0.0
2026-05-10 20:56:02.610,385,-0.7788991,-0.34250763,1.4105046,0.0,0.0,0.0
2026-05-10 20:56:02.620,386,-0.7788991,-0.34250763,1.4105046,0.0,0.0,0.0
2026-05-10 20:56:02.630,387,-1.1530123,-0.11406728,1.357997,0.0,0.0,0.0
2026-05-10 20:56:02.640,388,-1.1530123,-0.11406728,1.357997,0.0,0.0,0.0
2026-05-10 20:56:02.650,389,-1.1530123,-0.11406728,1.357997,0.0,0.0,0.0
2026-05-10 20:56:02.660,390,-1.1530123,-0.11406728,1.357997,0.0,0.0,0.0
2026-05-10 20:56:02.670,391,-1.1530123,-0.11406728,1.357997,0.0,0.0,0.0
2026-05-10 20:56:02.680,392,-1.1530123,-0.11406728,1.357997,0.0,0.0,0.0
2026-05-10 20:56:02.690,393,-1.1530123,-0.11406728,1.357997,0.0,0.0,0.0
2026-05-10 20:56:02.700,394,-1.1530123,-0.11406728,1.357997,0.0,0.0,0.0
2026-05-10 20:56:02.710,395,-1.1530123,-0.11406728,1.357997,0.0,0.0,0.0
2026-05-10 20:56:02.720,396,-1.1530123,-0.11406728,1.357997,0.0,0.0,0.0
2026-05-10 20:56:02.730,397,-1.1530123,-0.11406728,1.357997,0.0,0.0,0.0
2026-05-10 20:56:02.740,398,-1.1530123,-0.11406728,1.357997,0.0,0.0,0.0
2026-05-10 20:56:02.750,399,-1.1530123,-0.11406728,1.357997,0.0,0.0,0.0
2026-05-10 20:56:02.760,400,-1.1530123,-0.11406728,1.357997,0.0,0.0,0.0
2026-05-10 20:56:02.770,401,-1.1702370000000002,-0.074770643,1.3614144,0.0,0.0,0.0
2026-05-10 20:56:02.780,402,-1.1874617,-0.035474006,1.3648318,0.0,0.0,0.0
2026-05-10 20:56:02.790,403,-1.1874617,-0.035474006,1.3648318,0.0,0.0,0.0
2026-05-10 20:56:02.800,404,-1.0302752333333334,0.04288481133333333,1.4177064,0.0,0.0,0.0
2026-05-10 20:56:02.810,405,-0.951682,0.08206422,1.4441437,0.0,0.0,0.0
2026-05-10 20:56:02.820,406,-0.951682,0.08206422,1.4441437,0.0,0.0,0.0
2026-05-10 20:56:02.830,407,-0.951682,0.08206422,1.4441437,0.0,0.0,0.0
2026-05-10 20:56:02.840,408,-0.9182416,0.17655963,1.5081499,0.0,0.0,0.0
2026-05-10 20:56:02.850,409,-0.9182416,0.17655963,1.5081499,0.0,0.0,0.0
2026-05-10 20:56:02.860,410,-0.9182416,0.17655963,1.5081499,0.0,0.0,0.0
2026-05-10 20:56:02.870,411,-0.9182416,0.17655963,1.5081499,0.0,0.0,0.0
2026-05-10 20:56:02.880,412,-0.9182416,0.17655963,1.5081499,0.0,0.0,0.0
2026-05-10 20:56:02.890,413,-0.9182416,0.17655963,1.5081499,0.0,0.0,0.0
2026-05-10 20:56:02.900,414,-0.9182416,0.17655963,1.5081499,0.0,0.0,0.0
2026-05-10 20:56:02.910,415,-0.9746534666666666,0.22732416999999996,1.5362844333333332,0.0,0.0,0.0
2026-05-10 20:56:02.920,416,-1.0028594,0.25270644,1.5503517,0.0,0.0,0.0
2026-05-10 20:56:02.930,417,-1.1932721,0.28879207,1.5774771,0.0,0.0,0.0
2026-05-10 20:56:02.940,418,-1.1932721,0.28879207,1.5774771,0.0,0.0,0.0
2026-05-10 20:56:02.950,419,-1.1932721,0.28879207,1.5774771,0.0,0.0,0.0
2026-05-10 20:56:02.960,420,-1.1932721,0.28879207,1.5774771,0.0,0.0,0.0
2026-05-10 20:56:02.970,421,-1.1932721,0.28879207,1.5774771,0.0,0.0,0.0
2026-05-10 20:56:02.980,422,-1.1932721,0.28879207,1.5774771,0.0,0.0,0.0
2026-05-10 20:56:02.990,423,-1.1932721,0.28879207,1.5774771,0.0,0.0,0.0
2026-05-10 20:56:03.000,424,-1.3653363999999997,0.34006116000000003,1.4990826000000002,0.0,0.0,0.0
2026-05-10 20:56:03.010,425,-1.3653363999999997,0.34006116000000003,1.4990826000000002,0.0,0.0,0.0
2026-05-10 20:56:03.020,426,-1.3653363999999997,0.34006116000000003,1.4990826000000002,0.0,0.0,0.0
2026-05-10 20:56:03.030,427,-1.3653363999999997,0.34006116000000003,1.4990826000000002,0.0,0.0,0.0
2026-05-10 20:56:03.040,428,-1.3653364,0.34006116,1.4990826,0.0,0.0,0.0
2026-05-10 20:56:03.050,429,-1.3653363999999997,0.34006116000000003,1.4990826000000002,0.0,0.0,0.0
2026-05-10 20:56:03.060,430,-1.3653363999999997,0.34006116000000003,1.4990826000000002,0.0,0.0,0.0
2026-05-10 20:56:03.070,431,-1.3653364,0.34006116,1.4990826,0.0,0.0,0.0
2026-05-10 20:56:03.080,432,-1.3653363999999997,0.34006116000000003,1.4990826000000002,0.0,0.0,0.0
2026-05-10 20:56:03.090,433,-1.3632976999999997,0.3390774733333333,1.4563710666666667,0.0,0.0,0.0
2026-05-10 20:56:03.100,434,-1.3592202999999998,0.3371101,1.370948,0.0,0.0,0.0
2026-05-10 20:56:03.110,435,-1.3592203,0.3371101,1.370948,0.0,0.0,0.0
2026-05-10 20:56:03.120,436,-1.3592202999999998,0.3371101,1.370948,0.0,0.0,0.0
2026-05-10 20:56:03.130,437,-1.2687004,0.33986238,1.2172325,0.0,0.0,0.0
2026-05-10 20:56:03.140,438,-1.2687004,0.33986238,1.2172325,0.0,0.0,0.0
2026-05-10 20:56:03.150,439,-1.2687004,0.33986238,1.2172325,0.0,0.0,0.0
2026-05-10 20:56:03.160,440,-1.2687004,0.33986238,1.2172325,0.0,0.0,0.0
2026-05-10 20:56:03.170,441,-1.2687004,0.33986238,1.2172325,0.0,0.0,0.0
2026-05-10 20:56:03.180,442,-1.2687004,0.33986238,1.2172325,0.0,0.0,0.0
2026-05-10 20:56:03.190,443,-1.2687004,0.33986238,1.2172325,0.0,0.0,0.0
2026-05-10 20:56:03.200,444,-1.2687004,0.33986238,1.2172325,0.0,0.0,0.0
2026-05-10 20:56:03.210,445,-1.223787,0.41698776666666665,1.0932059666666667,0.0,0.0,0.0
2026-05-10 20:56:03.220,446,-1.2013303,0.45555046,1.0311927,0.0,0.0,0.0
2026-05-10 20:56:03.230,447,-1.3177371,0.47206426,1.0649388,0.0,0.0,0.0
2026-05-10 20:56:03.240,448,-1.3177371,0.47206426,1.0649388,0.0,0.0,0.0
2026-05-10 20:56:03.250,449,-1.3177371,0.47206426,1.0649388,0.0,0.0,0.0
2026-05-10 20:56:03.260,450,-1.3177371,0.47206426,1.0649388,0.0,0.0,0.0
2026-05-10 20:56:03.270,451,-1.3177371,0.47206426,1.0649388,0.0,0.0,0.0
2026-05-10 20:56:03.280,452,-1.3177371,0.47206426,1.0649388,0.0,0.0,0.0
2026-05-10 20:56:03.290,453,-1.3177371,0.47206426,1.0649388,0.0,0.0,0.0
2026-05-10 20:56:03.300,454,-1.3177371,0.47206426,1.0649388,0.0,0.0,0.0
2026-05-10 20:56:03.310,455,-1.3177371,0.47206426,1.0649388,0.0,0.0,0.0
2026-05-10 20:56:03.320,456,-1.4155237500000002,0.482545885,1.112106225,0.0,0.0,0.0
2026-05-10 20:56:03.330,457,-1.4481193,0.48603976,1.1278287,0.0,0.0,0.0
2026-05-10 20:56:03.340,458,-1.4481193,0.48603976,1.1278287,0.0,0.0,0.0
2026-05-10 20:56:03.350,459,-1.4481193,0.48603976,1.1278287,0.0,0.0,0.0
2026-05-10 20:56:03.360,460,-1.4481193,0.48603976,1.1278287,0.0,0.0,0.0
2026-05-10 20:56:03.370,461,-1.4481193,0.48603976,1.1278287,0.0,0.0,0.0
2026-05-10 20:56:03.380,462,-1.4481193,0.48603976,1.1278287,0.0,0.0,0.0
2026-05-10 20:56:03.390,463,-1.4481193,0.48603976,1.1278287,0.0,0.0,0.0
2026-05-10 20:56:03.400,464,-1.4481193,0.48603976,1.1278287,0.0,0.0,0.0
2026-05-10 20:56:03.410,465,-1.6662538,0.6187615,1.2655505,0.0,0.0,0.0
2026-05-10 20:56:03.420,466,-1.6662538,0.6187615,1.2655505,0.0,0.0,0.0
2026-05-10 20:56:03.430,467,-1.6662538,0.6187615,1.2655505,0.0,0.0,0.0
2026-05-10 20:56:03.440,468,-1.6662538,0.6187615,1.2655505,0.0,0.0,0.0
2026-05-10 20:56:03.450,469,-1.7490367,0.6729816,1.2933792,0.0,0.0,0.0
2026-05-10 20:56:03.460,470,-1.7490367000000002,0.6729816,1.2933792,0.0,0.0,0.0
2026-05-10 20:56:03.470,471,-1.7490367000000002,0.6729816,1.2933792,0.0,0.0,0.0
2026-05-10 20:56:03.480,472,-1.7490367000000002,0.6729816,1.2933792,0.0,0.0,0.0
2026-05-10 20:56:03.490,473,-1.7490367,0.6729816,1.2933792,0.0,0.0,0.0
2026-05-10 20:56:03.500,474,-1.7490367000000002,0.6729816,1.2933792,0.0,0.0,0.0
2026-05-10 20:56:03.510,475,-1.7490367000000002,0.6729816,1.2933792,0.0,0.0,0.0
2026-05-10 20:56:03.520,476,-1.7490367,0.6729816,1.2933792,0.0,0.0,0.0
2026-05-10 20:56:03.530,477,-1.7490367000000002,0.6729816,1.2933792,0.0,0.0,0.0
2026-05-10 20:56:03.540,478,-1.7490367000000002,0.6729816,1.2933792,0.0,0.0,0.0
2026-05-10 20:56:03.550,479,-1.7490367000000002,0.6729816,1.2933792,0.0,0.0,0.0
2026-05-10 20:56:03.560,480,-1.7490367,0.6729816,1.2933792,0.0,0.0,0.0
2026-05-10 20:56:03.570,481,-2.0506575,0.858211,1.4024465,0.0,0.0,0.0
2026-05-10 20:56:03.580,482,-2.0506575,0.858211,1.4024465,0.0,0.0,0.0
2026-05-10 20:56:03.590,483,-2.0506575,0.858211,1.4024465,0.0,0.0,0.0
2026-05-10 20:56:03.600,484,-2.0506575,0.858211,1.4024465,0.0,0.0,0.0
2026-05-10 20:56:03.610,485,-2.1656423,0.94903666,1.5386391,0.0,0.0,0.0
2026-05-10 20:56:03.620,486,-2.1656423,0.94903666,1.5386391,0.0,0.0,0.0
2026-05-10 20:56:03.630,487,-2.1656423,0.94903666,1.5386391,0.0,0.0,0.0
2026-05-10 20:56:03.640,488,-2.1656423,0.94903666,1.5386391,0.0,0.0,0.0
2026-05-10 20:56:03.650,489,-2.2346635,1.0481192,1.5803211,0.0,0.0,0.0
2026-05-10 20:56:03.660,490,-2.2346635,1.0481192,1.5803211,0.0,0.0,0.0
2026-05-10 20:56:03.670,491,-2.2346635,1.0481192,1.5803211,0.0,0.0,0.0
2026-05-10 20:56:03.680,492,-2.2346635,1.0481192,1.5803211,0.0,0.0,0.0
2026-05-10 20:56:03.690,493,-2.2346635,1.0481192,1.5803211,0.0,0.0,0.0
2026-05-10 20:56:03.700,494,-2.2346635,1.0481192,1.5803211,0.0,0.0,0.0
2026-05-10 20:56:03.710,495,-2.2346635,1.0481192,1.5803211,0.0,0.0,0.0
2026-05-10 20:56:03.720,496,-2.2346635,1.0481192,1.5803211,0.0,0.0,0.0
2026-05-10 20:56:03.730,497,-2.2346635,1.0481192,1.5803211,0.0,0.0,0.0
2026-05-10 20:56:03.740,498,-2.236012875,1.0739334249999999,1.54036315,0.0,0.0,0.0
2026-05-10 20:56:03.750,499,-2.240061,1.1513761,1.4204893,0.0,0.0,0.0
2026-05-10 20:56:03.760,500,-2.2314985,1.1862385,1.3877676,0.0,0.0,0.0
2026-05-10 20:56:03.770,501,-2.2314985,1.1862385,1.3877676,0.0,0.0,0.0
2026-05-10 20:56:03.780,502,-2.2314985,1.1862385,1.3877676,0.0,0.0,0.0
2026-05-10 20:56:03.790,503,-2.2314985,1.1862385,1.3877676,0.0,0.0,0.0
2026-05-10 20:56:03.800,504,-2.2314985,1.1862385,1.3877676,0.0,0.0,0.0
2026-05-10 20:56:03.810,505,-2.2314985,1.1862385,1.3877676,0.0,0.0,0.0
2026-05-10 20:56:03.820,506,-2.4790063,1.2497401,1.3880734,0.0,0.0,0.0
2026-05-10 20:56:03.830,507,-2.4790063,1.2497401,1.3880734,0.0,0.0,0.0
2026-05-10 20:56:03.840,508,-2.4790063,1.2497401,1.3880734,0.0,0.0,0.0
2026-05-10 20:56:03.850,509,-2.4790063,1.2497401,1.3880734,0.0,0.0,0.0
2026-05-10 20:56:03.860,510,-2.4790063,1.2497401,1.3880734,0.0,0.0,0.0
2026-05-10 20:56:03.870,511,-2.49852455,1.2223700499999999,1.45590975,0.0,0.0,0.0
2026-05-10 20:56:03.880,512,-2.5180428,1.195,1.5237461,0.0,0.0,0.0
2026-05-10 20:56:03.890,513,-2.541146766666667,1.2179357666666668,1.4994851666666669,0.0,0.0,0.0
2026-05-10 20:56:03.900,514,-2.5873547,1.2638073,1.4509633,0.0,0.0,0.0
2026-05-10 20:56:03.910,515,-2.588272125,1.261873075,1.468065725,0.0,0.0,0.0
2026-05-10 20:56:03.920,516,-2.5910244,1.2560704,1.519373,0.0,0.0,0.0
2026-05-10 20:56:03.930,517,-2.5910244,1.2560704,1.519373,0.0,0.0,0.0
2026-05-10 20:56:03.940,518,-2.5910244,1.2560704,1.519373,0.0,0.0,0.0
2026-05-10 20:56:03.950,519,-2.5910244,1.2560704,1.519373,0.0,0.0,0.0
2026-05-10 20:56:03.960,520,-2.5910244,1.2560704,1.519373,0.0,0.0,0.0
2026-05-10 20:56:03.970,521,-2.5910244,1.2560704,1.519373,0.0,0.0,0.0
2026-05-10 20:56:03.980,522,-2.5910244,1.2560704,1.519373,0.0,0.0,0.0
2026-05-10 20:56:03.990,523,-2.5910244,1.2560704,1.519373,0.0,0.0,0.0
2026-05-10 20:56:04.000,524,-2.5910244,1.2560704,1.519373,0.0,0.0,0.0
2026-05-10 20:56:04.010,525,-2.4164143499999997,1.1555313249999999,1.5176873,0.0,0.0,0.0
2026-05-10 20:56:04.020,526,-2.358211,1.1220183,1.5171254,0.0,0.0,0.0
2026-05-10 20:56:04.030,527,-2.358211,1.1220183,1.5171254,0.0,0.0,0.0
2026-05-10 20:56:04.040,528,-2.35873855,1.07354355,1.5168157249999998,0.0,0.0,0.0
2026-05-10 20:56:04.050,529,-2.3589144,1.0573853,1.5167125,0.0,0.0,0.0
2026-05-10 20:56:04.060,530,-2.3589144,1.0573853,1.5167125,0.0,0.0,0.0
2026-05-10 20:56:04.070,531,-2.3589144,1.0573853,1.5167125,0.0,0.0,0.0
2026-05-10 20:56:04.080,532,-2.3589144,1.0573853,1.5167125,0.0,0.0,0.0
2026-05-10 20:56:04.090,533,-2.3589144,1.0573853,1.5167125,0.0,0.0,0.0
2026-05-10 20:56:04.100,534,-2.3589144,1.0573853,1.5167125,0.0,0.0,0.0
2026-05-10 20:56:04.110,535,-2.3589144,1.0573853,1.5167125,0.0,0.0,0.0
2026-05-10 20:56:04.120,536,-2.3589144,1.0573853,1.5167125,0.0,0.0,0.0
2026-05-10 20:56:04.130,537,-2.4863455,0.99001527,1.5825688,0.0,0.0,0.0
2026-05-10 20:56:04.140,538,-2.4863455,0.9900152700000001,1.5825688,0.0,0.0,0.0
2026-05-10 20:56:04.150,539,-2.4863455,0.9900152700000001,1.5825688,0.0,0.0,0.0
2026-05-10 20:56:04.160,540,-2.4863455,0.99001527,1.5825688,0.0,0.0,0.0
2026-05-10 20:56:04.170,541,-2.4863455,0.99001527,1.5825688,0.0,0.0,0.0
2026-05-10 20:56:04.180,542,-2.4863455,0.99001527,1.5825688,0.0,0.0,0.0
2026-05-10 20:56:04.190,543,-2.4863455,0.99001527,1.5825688,0.0,0.0,0.0
2026-05-10 20:56:04.200,544,-2.4863455,0.9900152700000001,1.5825688,0.0,0.0,0.0
2026-05-10 20:56:04.210,545,-2.4863455,0.99001527,1.5825688,0.0,0.0,0.0
2026-05-10 20:56:04.220,546,-2.4863455,0.9900152700000001,1.5825688,0.0,0.0,0.0
2026-05-10 20:56:04.230,547,-2.4863455,0.9900152700000001,1.5825688,0.0,0.0,0.0
2026-05-10 20:56:04.240,548,-2.4863455,0.99001527,1.5825688,0.0,0.0,0.0
2026-05-10 20:56:04.250,549,-2.5132568333333336,0.9631702299999999,1.6172273,0.0,0.0,0.0
2026-05-10 20:56:04.260,550,-2.5670795,0.9094801499999999,1.6865443000000002,0.0,0.0,0.0
2026-05-10 20:56:04.270,551,-2.5670795,0.90948015,1.6865443,0.0,0.0,0.0
2026-05-10 20:56:04.280,552,-2.5670795,0.9094801499999999,1.6865443000000002,0.0,0.0,0.0
2026-05-10 20:56:04.290,553,-2.648425,0.8062233,1.7516819,0.0,0.0,0.0
2026-05-10 20:56:04.300,554,-2.648425,0.8062233,1.7516819000000001,0.0,0.0,0.0
2026-05-10 20:56:04.310,555,-2.648425,0.8062233,1.7516819000000001,0.0,0.0,0.0
2026-05-10 20:56:04.320,556,-2.6828287,0.599181975,1.7901338,0.0,0.0,0.0
2026-05-10 20:56:04.330,557,-2.6942966,0.5301682,1.8029511000000003,0.0,0.0,0.0
2026-05-10 20:56:04.340,558,-2.6915443,0.49155964249999995,1.8068501750000001,0.0,0.0,0.0
2026-05-10 20:56:04.350,559,-2.4928695333333333,0.09381753333333333,1.9125382666666664,0.0,0.0,0.0
2026-05-10 20:56:04.360,560,-2.5735016,0.20652905,1.8593272999999997,0.0,0.0,0.0
2026-05-10 20:56:04.370,561,-2.5735016,0.20652905,1.8593273,0.0,0.0,0.0
2026-05-10 20:56:04.380,562,-2.5735016,0.20652905,1.8593272999999997,0.0,0.0,0.0
2026-05-10 20:56:04.390,563,-2.5735016,0.20652905,1.8593272999999997,0.0,0.0,0.0
2026-05-10 20:56:04.400,564,-2.5735016,0.20652905,1.8593273,0.0,0.0,0.0
2026-05-10 20:56:04.410,565,-2.5735016,0.20652905,1.8593272999999997,0.0,0.0,0.0
2026-05-10 20:56:04.420,566,-2.5035704,0.10112384999999999,1.907847925,0.0,0.0,0.0
2026-05-10 20:56:04.430,567,-2.2937768,-0.21509175,2.0534098,0.0,0.0,0.0
2026-05-10 20:56:04.440,568,-2.2260906666666664,-0.3541946966666667,2.0621763333333334,0.0,0.0,0.0
2026-05-10 20:56:04.450,569,-2.1922476,-0.42374617,2.0665596,0.0,0.0,0.0
2026-05-10 20:56:04.460,570,-2.1922476,-0.42374617,2.0665596,0.0,0.0,0.0
2026-05-10 20:56:04.470,571,-2.1922476,-0.42374617,2.0665596,0.0,0.0,0.0
2026-05-10 20:56:04.480,572,-2.1922476,-0.42374617,2.0665596,0.0,0.0,0.0
2026-05-10 20:56:04.490,573,-2.1922476,-0.42374617,2.0665596,0.0,0.0,0.0
2026-05-10 20:56:04.500,574,-2.0956116,-0.5219113,2.0331347,0.0,0.0,0.0
2026-05-10 20:56:04.510,575,-2.0956116,-0.5219113,2.0331347,0.0,0.0,0.0
2026-05-10 20:56:04.520,576,-2.0956116,-0.5219113,2.0331347,0.0,0.0,0.0
2026-05-10 20:56:04.530,577,-2.0956116,-0.5219113,2.0331347,0.0,0.0,0.0
2026-05-10 20:56:04.540,578,-2.0956116,-0.5219113,2.0331347,0.0,0.0,0.0
2026-05-10 20:56:04.550,579,-2.0956116,-0.5219113,2.0331347,0.0,0.0,0.0
2026-05-10 20:56:04.560,580,-2.0956116,-0.5219113,2.0331347,0.0,0.0,0.0
2026-05-10 20:56:04.570,581,-2.0956116,-0.5219113,2.0331347,0.0,0.0,0.0
2026-05-10 20:56:04.580,582,-2.0335856,-0.5628899,1.9678441500000001,0.0,0.0,0.0
2026-05-10 20:56:04.590,583,-1.9715596,-0.6038685,1.9025536,0.0,0.0,0.0
2026-05-10 20:56:04.600,584,-1.9715596,-0.6038685,1.9025536,0.0,0.0,0.0
2026-05-10 20:56:04.610,585,-1.2698050749999998,-0.684074895,1.3127944,0.0,0.0,0.0
2026-05-10 20:56:04.620,586,-1.0358869,-0.71081036,1.116208,0.0,0.0,0.0
2026-05-10 20:56:04.630,587,-1.36901375,-0.70555808,1.3574389,0.0,0.0,0.0
2026-05-10 20:56:04.640,588,-1.7021406,-0.7003058000000001,1.5986698,0.0,0.0,0.0
2026-05-10 20:56:04.650,589,-1.7021406,-0.7003058000000001,1.5986698,0.0,0.0,0.0
2026-05-10 20:56:04.660,590,-1.7021406,-0.7003058,1.5986698,0.0,0.0,0.0
2026-05-10 20:56:04.670,591,-1.6909275666666665,-0.70136085,1.5869470333333335,0.0,0.0,0.0
2026-05-10 20:56:04.680,592,-1.6685015000000003,-0.7034709500000002,1.5635015,0.0,0.0,0.0
2026-05-10 20:56:04.690,593,-1.6685015,-0.70347095,1.5635015,0.0,0.0,0.0
2026-05-10 20:56:04.700,594,-1.6685015000000003,-0.7034709500000002,1.5635015,0.0,0.0,0.0
2026-05-10 20:56:04.710,595,-1.6685015,-0.70347095,1.5635015,0.0,0.0,0.0
2026-05-10 20:56:04.720,596,-1.6685015000000003,-0.7034709500000002,1.5635015,0.0,0.0,0.0
2026-05-10 20:56:04.730,597,-1.6685015000000003,-0.7034709500000002,1.5635015,0.0,0.0,0.0
2026-05-10 20:56:04.740,598,-1.5268578000000002,-0.7294113125,1.4275191249999999,0.0,0.0,0.0
2026-05-10 20:56:04.750,599,-1.3216056,-0.77695715,1.2216055,0.0,0.0,0.0
2026-05-10 20:56:04.760,600,-1.284044425,-0.77846327,1.204889125,0.0,0.0,0.0
2026-05-10 20:56:04.770,601,-1.1713609,-0.78298163,1.15474,0.0,0.0,0.0
2026-05-10 20:56:04.780,602,-1.1713609,-0.78298163,1.15474,0.0,0.0,0.0
2026-05-10 20:56:04.790,603,-1.1713609,-0.78298163,1.15474,0.0,0.0,0.0
2026-05-10 20:56:04.800,604,-1.1713609,-0.78298163,1.15474,0.0,0.0,0.0
2026-05-10 20:56:04.810,605,-1.1713609,-0.78298163,1.15474,0.0,0.0,0.0
2026-05-10 20:56:04.820,606,-1.1713609,-0.78298163,1.15474,0.0,0.0,0.0
2026-05-10 20:56:04.830,607,-1.0943884,-0.7488226,1.1215137,0.0,0.0,0.0
2026-05-10 20:56:04.840,608,-1.0943884,-0.7488226,1.1215137,0.0,0.0,0.0
2026-05-10 20:56:04.850,609,-1.0943884,-0.7488226,1.1215137,0.0,0.0,0.0
2026-05-10 20:56:04.860,610,-1.0943884,-0.7488226,1.1215137,0.0,0.0,0.0
2026-05-10 20:56:04.870,611,-1.0943884,-0.7488226,1.1215137,0.0,0.0,0.0
2026-05-10 20:56:04.880,612,-1.0885283,-0.72777521,1.130305775,0.0,0.0,0.0
2026-05-10 20:56:04.890,613,-1.070948,-0.66463304,1.156682,0.0,0.0,0.0
2026-05-10 20:56:04.900,614,-1.070948,-0.66463304,1.156682,0.0,0.0,0.0
2026-05-10 20:56:04.910,615,-1.070948,-0.66463304,1.156682,0.0,0.0,0.0
2026-05-10 20:56:04.920,616,-1.070948,-0.66463304,1.156682,0.0,0.0,0.0
2026-05-10 20:56:04.930,617,-1.070948,-0.66463304,1.156682,0.0,0.0,0.0
2026-05-10 20:56:04.940,618,-1.070948,-0.66463304,1.156682,0.0,0.0,0.0
2026-05-10 20:56:04.950,619,-1.070948,-0.66463304,1.156682,0.0,0.0,0.0
2026-05-10 20:56:04.960,620,-1.070948,-0.66463304,1.156682,0.0,0.0,0.0
2026-05-10 20:56:04.970,621,-1.070948,-0.66463304,1.156682,0.0,0.0,0.0
2026-05-10 20:56:04.980,622,-1.070948,-0.66463304,1.156682,0.0,0.0,0.0
2026-05-10 20:56:04.990,623,-1.106422,-0.6519878,1.1610551,0.0,0.0,0.0
2026-05-10 20:56:05.000,624,-1.106422,-0.6519878,1.1610551,0.0,0.0,0.0
2026-05-10 20:56:05.010,625,-1.106422,-0.6519878,1.1610551,0.0,0.0,0.0
2026-05-10 20:56:05.020,626,-1.106422,-0.6519878,1.1610551,0.0,0.0,0.0
2026-05-10 20:56:05.030,627,-1.106422,-0.6519878,1.1610551,0.0,0.0,0.0
2026-05-10 20:56:05.040,628,-1.106422,-0.6519878,1.1610551,0.0,0.0,0.0
2026-05-10 20:56:05.050,629,-0.943986985,-0.6176338125,1.087584125,0.0,0.0,0.0
2026-05-10 20:56:05.060,630,-0.45668194,-0.51457185,0.8671712,0.0,0.0,0.0
2026-05-10 20:56:05.070,631,-0.45668194,-0.51457185,0.8671712,0.0,0.0,0.0
2026-05-10 20:56:05.080,632,-0.45668194,-0.51457185,0.8671712,0.0,0.0,0.0
2026-05-10 20:56:05.090,633,-0.45668194,-0.51457185,0.8671712,0.0,0.0,0.0
2026-05-10 20:56:05.100,634,-1.0775688,-0.6488226,1.1581041,0.0,0.0,0.0
2026-05-10 20:56:05.110,635,-1.0775688,-0.6488226,1.1581041,0.0,0.0,0.0
2026-05-10 20:56:05.120,636,-0.97584105,-0.6558563,1.0898012,0.0,0.0,0.0
2026-05-10 20:56:05.130,637,-0.97584105,-0.6558563,1.0898012,0.0,0.0,0.0
2026-05-10 20:56:05.140,638,-0.97584105,-0.6558563,1.0898012,0.0,0.0,0.0
2026-05-10 20:56:05.150,639,-0.97584105,-0.6558563,1.0898012,0.0,0.0,0.0
2026-05-10 20:56:05.160,640,-0.97584105,-0.6558563,1.0898012,0.0,0.0,0.0
2026-05-10 20:56:05.170,641,-0.8616208125,-0.663195725,1.010145275,0.0,0.0,0.0
2026-05-10 20:56:05.180,642,-0.8235474000000002,-0.6656422,0.9835933,0.0,0.0,0.0
2026-05-10 20:56:05.190,643,-0.8235474000000002,-0.6656422,0.9835933,0.0,0.0,0.0
2026-05-10 20:56:05.200,644,-0.8235474,-0.6656422,0.9835933,0.0,0.0,0.0
2026-05-10 20:56:05.210,645,-0.8235474000000002,-0.6656422,0.9835933,0.0,0.0,0.0
2026-05-10 20:56:05.220,646,-0.55259943,-0.69714063,0.82129973,0.0,0.0,0.0
2026-05-10 20:56:05.230,647,-0.55259943,-0.69714063,0.82129973,0.0,0.0,0.0
2026-05-10 20:56:05.240,648,-0.52240064,-0.69872321,0.8131957475,0.0,0.0,0.0
2026-05-10 20:56:05.250,649,-0.49220185,-0.70030579,0.805091765,0.0,0.0,0.0
2026-05-10 20:56:05.260,650,-0.46200306,-0.70188837,0.7969877825,0.0,0.0,0.0
2026-05-10 20:56:05.270,651,-0.43180427,-0.70347095,0.7888838,0.0,0.0,0.0
2026-05-10 20:56:05.280,652,-0.43180427,-0.70347095,0.7888838,0.0,0.0,0.0
2026-05-10 20:56:05.290,653,-0.43180427,-0.7034709500000002,0.7888838000000001,0.0,0.0,0.0
2026-05-10 20:56:05.300,654,-0.43180427,-0.7034709500000002,0.7888838000000001,0.0,0.0,0.0
2026-05-10 20:56:05.310,655,-0.43180427,-0.7034709500000002,0.7888838000000001,0.0,0.0,0.0
2026-05-10 20:56:05.320,656,-0.43180427,-0.7034709500000002,0.7888838000000001,0.0,0.0,0.0
2026-05-10 20:56:05.330,657,-0.43180427,-0.70347095,0.7888838,0.0,0.0,0.0
2026-05-10 20:56:05.340,658,-0.43180427,-0.7034709500000002,0.7888838000000001,0.0,0.0,0.0
2026-05-10 20:56:05.350,659,-0.36738533,-0.67197245,0.78206426,0.0,0.0,0.0
2026-05-10 20:56:05.360,660,-0.35400229250000004,-0.5923050125,0.834426665,0.0,0.0,0.0
2026-05-10 20:56:05.370,661,-0.34954128,-0.5657492,0.8518808,0.0,0.0,0.0
2026-05-10 20:56:05.380,662,-0.34954128,-0.5657492,0.8518808,0.0,0.0,0.0
2026-05-10 20:56:05.390,663,-0.34954128,-0.5657492,0.8518808,0.0,0.0,0.0
2026-05-10 20:56:05.400,664,-0.34954128,-0.5657492,0.8518808,0.0,0.0,0.0
2026-05-10 20:56:05.410,665,-0.34954128,-0.5657492,0.8518808,0.0,0.0,0.0
2026-05-10 20:56:05.420,666,-0.34954128,-0.5657492,0.8518808,0.0,0.0,0.0
2026-05-10 20:56:05.430,667,-0.349185785,-0.55935395,0.8524694825,0.0,0.0,0.0
2026-05-10 20:56:05.440,668,-0.3481193,-0.5401682,0.85423553,0.0,0.0,0.0
2026-05-10 20:56:05.450,669,-0.3481193,-0.5401682,0.85423553,0.0,0.0,0.0
2026-05-10 20:56:05.460,670,-0.3481193,-0.5401682,0.85423553,0.0,0.0,0.0
2026-05-10 20:56:05.470,671,-0.3481193,-0.5401682,0.85423553,0.0,0.0,0.0
2026-05-10 20:56:05.480,672,-0.3481193,-0.5401682,0.85423553,0.0,0.0,0.0
2026-05-10 20:56:05.490,673,-0.3481193,-0.5401682,0.85423553,0.0,0.0,0.0
2026-05-10 20:56:05.500,674,-0.3481193,-0.5401682,0.85423553,0.0,0.0,0.0
2026-05-10 20:56:05.510,675,-0.3481193,-0.5401682,0.85423553,0.0,0.0,0.0
2026-05-10 20:56:05.520,676,-0.3765902333333333,-0.5245311,0.8829103100000001,0.0,0.0,0.0
2026-05-10 20:56:05.530,677,-0.3908257,-0.51671255,0.8972477,0.0,0.0,0.0
2026-05-10 20:56:05.540,678,-0.3908257,-0.51671255,0.8972477,0.0,0.0,0.0
2026-05-10 20:56:05.550,679,-0.3908257,-0.51671255,0.8972477,0.0,0.0,0.0
2026-05-10 20:56:05.560,680,-0.3908257,-0.51671255,0.8972477,0.0,0.0,0.0
2026-05-10 20:56:05.570,681,-0.3908257,-0.51671255,0.8972477,0.0,0.0,0.0
2026-05-10 20:56:05.580,682,-0.3908257,-0.51671255,0.8972477,0.0,0.0,0.0
2026-05-10 20:56:05.590,683,-0.3908257,-0.51671255,0.8972477,0.0,0.0,0.0
2026-05-10 20:56:05.600,684,-0.3908257,-0.51671255,0.8972477,0.0,0.0,0.0
2026-05-10 20:56:05.610,685,-0.3908257,-0.51671255,0.8972477,0.0,0.0,0.0
2026-05-10 20:56:05.620,686,-0.3908257,-0.51671255,0.8972477,0.0,0.0,0.0
2026-05-10 20:56:05.630,687,-0.3908257,-0.51671255,0.8972477,0.0,0.0,0.0
2026-05-10 20:56:05.640,688,-0.50916921,-0.51335371,0.65059632,0.0,0.0,0.0
2026-05-10 20:56:05.650,689,-0.52527523,-0.49724773,0.52772176,0.0,0.0,0.0
2026-05-10 20:56:05.660,690,-0.52527523,-0.49724773,0.52772176,0.0,0.0,0.0
2026-05-10 20:56:05.670,691,-0.52527523,-0.49724773,0.52772176,0.0,0.0,0.0
2026-05-10 20:56:05.680,692,-0.52527523,-0.49724773,0.52772176,0.0,0.0,0.0
2026-05-10 20:56:05.690,693,-0.52527523,-0.49724773,0.52772176,0.0,0.0,0.0
2026-05-10 20:56:05.700,694,-0.52527523,-0.49724773,0.52772176,0.0,0.0,0.0
2026-05-10 20:56:05.710,695,-0.52527523,-0.49724773,0.52772176,0.0,0.0,0.0
2026-05-10 20:56:05.720,696,-0.52527523,-0.49724773,0.52772176,0.0,0.0,0.0
2026-05-10 20:56:05.730,697,-0.5243080975,-0.4885818175,0.506903705,0.0,0.0,0.0
2026-05-10 20:56:05.740,698,-0.5214067,-0.46258408,0.44444954,0.0,0.0,0.0
2026-05-10 20:56:05.750,699,-0.5214067,-0.46258408,0.44444954,0.0,0.0,0.0
2026-05-10 20:56:05.760,700,-0.5214067,-0.46258408,0.44444954,0.0,0.0,0.0
2026-05-10 20:56:05.770,701,-0.5214067,-0.46258408,0.44444954,0.0,0.0,0.0
2026-05-10 20:56:05.780,702,-0.5214067,-0.46258408,0.44444954,0.0,0.0,0.0
2026-05-10 20:56:05.790,703,-0.3948814975,-0.43674694000000003,0.2711238575,0.0,0.0,0.0
2026-05-10 20:56:05.800,704,-0.35270643,-0.42813456,0.21334863,0.0,0.0,0.0
2026-05-10 20:56:05.810,705,-0.35270643,-0.42813456,0.21334863,0.0,0.0,0.0
2026-05-10 20:56:05.820,706,-0.28899084,-0.43205658999999996,0.14525994,0.0,0.0,0.0
2026-05-10 20:56:05.830,707,-0.22527525,-0.43597862,0.07717125,0.0,0.0,0.0
2026-05-10 20:56:05.840,708,-0.22527525,-0.43597862,0.07717125,0.0,0.0,0.0
2026-05-10 20:56:05.850,709,-0.22527525,-0.43597862,0.07717125,0.0,0.0,0.0
2026-05-10 20:56:05.860,710,-0.22527525,-0.43597862,0.07717125,0.0,0.0,0.0
2026-05-10 20:56:05.870,711,-0.22527525,-0.43597862,0.07717125,0.0,0.0,0.0
2026-05-10 20:56:05.880,712,-0.22527525,-0.43597862,0.07717125,0.0,0.0,0.0
2026-05-10 20:56:05.890,713,-0.22527525,-0.43597862,0.07717125,0.0,0.0,0.0
2026-05-10 20:56:05.900,714,-0.22527525,-0.43597862,0.07717125,0.0,0.0,0.0
2026-05-10 20:56:05.910,715,-0.22527525,-0.43597862,0.07717125,0.0,0.0,0.0
2026-05-10 20:56:05.920,716,-0.22527525,-0.43597862,0.07717125,0.0,0.0,0.0
2026-05-10 20:56:05.930,717,-0.22527525,-0.43597862,0.07717125,0.0,0.0,0.0
2026-05-10 20:56:05.940,718,-0.22527525,-0.43597862,0.07717125,0.0,0.0,0.0
2026-05-10 20:56:05.950,719,-0.06055046,-0.44597858,-0.14240062,0.0,0.0,0.0
2026-05-10 20:56:05.960,720,-0.06055046,-0.44597858,-0.14240062,0.0,0.0,0.0
2026-05-10 20:56:05.970,721,-0.035779817,-0.44903669,-0.21778288499999998,0.0,0.0,0.0
2026-05-10 20:56:05.980,722,0.033027524,-0.4579358,-0.30233945,0.0,0.0,0.0
2026-05-10 20:56:05.990,723,0.055045873,-0.46085629999999994,-0.3069266,0.0,0.0,0.0
2026-05-10 20:56:06.000,724,0.055045873,-0.46085629999999994,-0.3069266,0.0,0.0,0.0
2026-05-10 20:56:06.010,725,0.055045873,-0.46085629999999994,-0.3069266,0.0,0.0,0.0
2026-05-10 20:56:06.020,726,0.055045873,-0.4608563,-0.3069266,0.0,0.0,0.0
2026-05-10 20:56:06.030,727,0.079918451,-0.48280328,-0.3069266,0.0,0.0,0.0
2026-05-10 20:56:06.040,728,0.09235474,-0.49377677,-0.3069266,0.0,0.0,0.0
2026-05-10 20:56:06.050,729,0.09235474,-0.49377677,-0.3069266,0.0,0.0,0.0
2026-05-10 20:56:06.060,730,0.09235474,-0.49377677,-0.3069266,0.0,0.0,0.0
2026-05-10 20:56:06.070,731,0.09235474,-0.49377677,-0.3069266,0.0,0.0,0.0
2026-05-10 20:56:06.080,732,0.09574923333333334,-0.49636595666666666,-0.23434760666666668,0.0,0.0,0.0
2026-05-10 20:56:06.090,733,0.09744648,-0.49766055,-0.19805810999999998,0.0,0.0,0.0
2026-05-10 20:56:06.100,734,0.09744648,-0.49766055,-0.19805811,0.0,0.0,0.0
2026-05-10 20:56:06.110,735,0.09744648,-0.49766055,-0.19805810999999998,0.0,0.0,0.0
2026-05-10 20:56:06.120,736,0.09744648,-0.49766055,-0.19805810999999998,0.0,0.0,0.0
2026-05-10 20:56:06.130,737,0.09744648,-0.49766055,-0.19805811,0.0,0.0,0.0
2026-05-10 20:56:06.140,738,0.092895002,-0.49962793333333333,-0.16217635333333333,0.0,0.0,0.0
2026-05-10 20:56:06.150,739,0.083792046,-0.5035627,-0.09041284,0.0,0.0,0.0
2026-05-10 20:56:06.160,740,0.083792046,-0.5035627,-0.09041284,0.0,0.0,0.0
2026-05-10 20:56:06.170,741,0.083792046,-0.5035627,-0.09041284,0.0,0.0,0.0
2026-05-10 20:56:06.180,742,0.083792046,-0.5035627,-0.09041284,0.0,0.0,0.0
2026-05-10 20:56:06.190,743,0.083792046,-0.5035627,-0.09041284,0.0,0.0,0.0
2026-05-10 20:56:06.200,744,0.26666668,-0.59897554,0.20163609,0.0,0.0,0.0
2026-05-10 20:56:06.210,745,0.26666668,-0.59897554,0.20163608999999996,0.0,0.0,0.0
2026-05-10 20:56:06.220,746,0.26666668,-0.59897554,0.20163608999999996,0.0,0.0,0.0
2026-05-10 20:56:06.230,747,0.26666668,-0.59897554,0.20163608999999996,0.0,0.0,0.0
2026-05-10 20:56:06.240,748,0.26666668,-0.59897554,0.20163608999999996,0.0,0.0,0.0
2026-05-10 20:56:06.250,749,0.36437308999999996,-0.61788992,0.27375383,0.0,0.0,0.0
2026-05-10 20:56:06.260,750,0.4620795,-0.6368043,0.3458715700000001,0.0,0.0,0.0
2026-05-10 20:56:06.270,751,0.4620795,-0.6368043,0.3458715700000001,0.0,0.0,0.0
2026-05-10 20:56:06.280,752,0.4620795,-0.6368043,0.34587157,0.0,0.0,0.0
2026-05-10 20:56:06.290,753,0.4620795,-0.6368043,0.3458715700000001,0.0,0.0,0.0
2026-05-10 20:56:06.300,754,0.60267582,-0.66264147,0.41674312750000003,0.0,0.0,0.0
2026-05-10 20:56:06.310,755,0.64954126,-0.6712538599999999,0.44036698,0.0,0.0,0.0
2026-05-10 20:56:06.320,756,0.78769622,-0.6798879133333333,0.44036698,0.0,0.0,0.0
2026-05-10 20:56:06.330,757,0.8567737,-0.68420494,0.44036698,0.0,0.0,0.0
2026-05-10 20:56:06.340,758,0.8567737000000001,-0.68420494,0.44036698,0.0,0.0,0.0
2026-05-10 20:56:06.350,759,0.8567737000000001,-0.68420494,0.44036698,0.0,0.0,0.0
2026-05-10 20:56:06.360,760,0.8735626999999999,-0.6884148933333334,0.17336391533333337,0.0,0.0,0.0
2026-05-10 20:56:06.370,761,0.8819572,-0.69051987,0.039862383,0.0,0.0,0.0
2026-05-10 20:56:06.380,762,0.8819572,-0.69051987,0.039862383,0.0,0.0,0.0
2026-05-10 20:56:06.390,763,0.8819572,-0.69051987,0.039862383,0.0,0.0,0.0
2026-05-10 20:56:06.400,764,0.8819572,-0.69051987,0.039862383,0.0,0.0,0.0
2026-05-10 20:56:06.410,765,0.8819572,-0.69051987,0.039862383,0.0,0.0,0.0
2026-05-10 20:56:06.420,766,0.8819572,-0.69051987,0.039862383,0.0,0.0,0.0
2026-05-10 20:56:06.430,767,0.8819572,-0.69051987,0.039862383,0.0,0.0,0.0
2026-05-10 20:56:06.440,768,0.8819572,-0.69051987,0.039862383,0.0,0.0,0.0
2026-05-10 20:56:06.450,769,0.8819572,-0.69051987,0.039862383,0.0,0.0,0.0
2026-05-10 20:56:06.460,770,0.8819572,-0.69051987,0.039862383,0.0,0.0,0.0
2026-05-10 20:56:06.470,771,0.8706422,-0.62171257,-0.10214068,0.0,0.0,0.0
2026-05-10 20:56:06.480,772,0.8706422000000001,-0.62171257,-0.10214068,0.0,0.0,0.0
2026-05-10 20:56:06.490,773,0.8706422000000001,-0.62171257,-0.10214068,0.0,0.0,0.0
2026-05-10 20:56:06.500,774,0.8706422000000001,-0.62171257,-0.10214068,0.0,0.0,0.0
2026-05-10 20:56:06.510,775,0.8706422000000001,-0.62171257,-0.10214068,0.0,0.0,0.0
2026-05-10 20:56:06.520,776,0.8706422,-0.62171257,-0.10214068,0.0,0.0,0.0
2026-05-10 20:56:06.530,777,0.8706422,-0.62171257,-0.10214068,0.0,0.0,0.0
2026-05-10 20:56:06.540,778,0.8706422,-0.62171257,-0.10214068,0.0,0.0,0.0
2026-05-10 20:56:06.550,779,0.84918195,-0.587156,-0.1087156,0.0,0.0,0.0
2026-05-10 20:56:06.560,780,0.8277217,-0.55259943,-0.11529052,0.0,0.0,0.0
2026-05-10 20:56:06.570,781,0.8277217,-0.55259943,-0.11529052,0.0,0.0,0.0
2026-05-10 20:56:06.580,782,0.8277217,-0.55259943,-0.11529052,0.0,0.0,0.0
2026-05-10 20:56:06.590,783,0.8277217,-0.55259943,-0.11529052,0.0,0.0,0.0
2026-05-10 20:56:06.600,784,0.8277217,-0.55259943,-0.11529052,0.0,0.0,0.0
2026-05-10 20:56:06.610,785,0.8277217,-0.55259943,-0.11529052,0.0,0.0,0.0
2026-05-10 20:56:06.620,786,0.8277217,-0.55259943,-0.11529052,0.0,0.0,0.0
2026-05-10 20:56:06.630,787,0.8277217,-0.55259943,-0.11529052,0.0,0.0,0.0
2026-05-10 20:56:06.640,788,0.8277217,-0.55259943,-0.11529052,0.0,0.0,0.0
2026-05-10 20:56:06.650,789,0.8277217,-0.55259943,-0.11529052,0.0,0.0,0.0
2026-05-10 20:56:06.660,790,0.8277217,-0.55259943,-0.11529052,0.0,0.0,0.0
2026-05-10 20:56:06.670,791,0.8277217,-0.55259943,-0.11529052,0.0,0.0,0.0
2026-05-10 20:56:06.680,792,0.8277217,-0.55259943,-0.11529052,0.0,0.0,0.0
2026-05-10 20:56:06.690,793,0.8277217,-0.55259943,-0.11529052,0.0,0.0,0.0
2026-05-10 20:56:06.700,794,0.8277217,-0.55259943,-0.11529052,0.0,0.0,0.0
2026-05-10 20:56:06.710,795,0.8277217,-0.55259943,-0.11529052,0.0,0.0,0.0
2026-05-10 20:56:06.720,796,0.7847757266666666,-0.5004077766666667,-0.12276249333333333,0.0,0.0,0.0
2026-05-10 20:56:06.730,797,0.76330274,-0.47431195,-0.12649848,0.0,0.0,0.0
2026-05-10 20:56:06.740,798,0.76330274,-0.47431195,-0.12649848,0.0,0.0,0.0
2026-05-10 20:56:06.750,799,0.76330274,-0.47431195,-0.12649848,0.0,0.0,0.0
2026-05-10 20:56:06.760,800,0.76330274,-0.47431195,-0.12649848,0.0,0.0,0.0
2026-05-10 20:56:06.770,801,0.814266,-0.40469417,-0.19143732,0.0,0.0,0.0
2026-05-10 20:56:06.780,802,0.814266,-0.40469417,-0.19143732,0.0,0.0,0.0
2026-05-10 20:56:06.790,803,0.814266,-0.40469417,-0.19143732,0.0,0.0,0.0
2026-05-10 20:56:06.800,804,0.814266,-0.40469417,-0.19143732,0.0,0.0,0.0
2026-05-10 20:56:06.810,805,0.814266,-0.40469417,-0.19143732,0.0,0.0,0.0
2026-05-10 20:56:06.820,806,0.814266,-0.40469417,-0.19143732,0.0,0.0,0.0
2026-05-10 20:56:06.830,807,0.814266,-0.40469417,-0.19143732,0.0,0.0,0.0
2026-05-10 20:56:06.840,808,1.0014933666666668,-0.40584606,-0.27937309,0.0,0.0,0.0
2026-05-10 20:56:06.850,809,1.3759480999999998,-0.40814983999999993,-0.45524463,0.0,0.0,0.0
2026-05-10 20:56:06.860,810,1.5165189666666665,-0.4040061133333333,-0.53815492,0.0,0.0,0.0
2026-05-10 20:56:06.870,811,1.8266106333333332,-0.34801224000000003,-0.7942915666666667,0.0,0.0,0.0
2026-05-10 20:56:06.880,812,1.8410856000000002,-0.32415903,-0.8394496,0.0,0.0,0.0
2026-05-10 20:56:06.890,813,1.8410856,-0.32415903,-0.8394496,0.0,0.0,0.0
2026-05-10 20:56:06.900,814,1.8410856000000002,-0.32415903,-0.8394496,0.0,0.0,0.0
2026-05-10 20:56:06.910,815,1.8410856000000002,-0.32415903,-0.8394496,0.0,0.0,0.0
2026-05-10 20:56:06.920,816,1.8410856000000002,-0.32415903,-0.8394496,0.0,0.0,0.0
2026-05-10 20:56:06.930,817,1.8410856000000002,-0.32415903,-0.8394496,0.0,0.0,0.0
2026-05-10 20:56:06.940,818,1.8410856,-0.32415903,-0.8394496,0.0,0.0,0.0
2026-05-10 20:56:06.950,819,1.8410856000000002,-0.32415903,-0.8394496,0.0,0.0,0.0
2026-05-10 20:56:06.960,820,1.7668653999999997,-0.26850152,-0.9631957400000001,0.0,0.0,0.0
2026-05-10 20:56:06.970,821,1.7668653999999997,-0.26850152,-0.9631957400000001,0.0,0.0,0.0
2026-05-10 20:56:06.980,822,1.7668653999999997,-0.26850152,-0.9631957400000001,0.0,0.0,0.0
2026-05-10 20:56:06.990,823,1.7668654,-0.26850152,-0.96319574,0.0,0.0,0.0
2026-05-10 20:56:07.000,824,1.7668653999999997,-0.26850152,-0.9631957400000001,0.0,0.0,0.0
2026-05-10 20:56:07.010,825,1.7668653999999997,-0.26850152,-0.9631957400000001,0.0,0.0,0.0
2026-05-10 20:56:07.020,826,1.4286392,-0.13842508,-0.97247714,0.0,0.0,0.0
2026-05-10 20:56:07.030,827,1.4286392,-0.13842508,-0.97247714,0.0,0.0,0.0
2026-05-10 20:56:07.040,828,1.4286392,-0.13842508,-0.97247714,0.0,0.0,0.0
2026-05-10 20:56:07.050,829,1.3376147000000003,-0.02905199,-0.88654435,0.0,0.0,0.0
2026-05-10 20:56:07.060,830,1.3376147000000003,-0.02905199,-0.88654435,0.0,0.0,0.0
2026-05-10 20:56:07.070,831,1.3376147000000003,-0.02905199,-0.88654435,0.0,0.0,0.0
2026-05-10 20:56:07.080,832,1.3376147000000003,-0.02905199,-0.88654435,0.0,0.0,0.0
2026-05-10 20:56:07.090,833,1.2683028,0.034449544,-0.8089755,0.0,0.0,0.0
2026-05-10 20:56:07.100,834,1.2683028,0.034449544,-0.8089755,0.0,0.0,0.0
2026-05-10 20:56:07.110,835,1.2683028,0.034449544,-0.8089755,0.0,0.0,0.0
2026-05-10 20:56:07.120,836,1.2683028,0.034449544,-0.8089755,0.0,0.0,0.0
2026-05-10 20:56:07.130,837,1.2683028,0.034449544,-0.8089755,0.0,0.0,0.0
2026-05-10 20:56:07.140,838,1.2559327666666666,0.05864424266666666,-0.7944648133333333,0.0,0.0,0.0
2026-05-10 20:56:07.150,839,1.2311927,0.10703364,-0.76544344,0.0,0.0,0.0
2026-05-10 20:56:07.160,840,1.2311927,0.10703364,-0.76544344,0.0,0.0,0.0
2026-05-10 20:56:07.170,841,1.2311927,0.10703364,-0.76544344,0.0,0.0,0.0
2026-05-10 20:56:07.180,842,1.2311927,0.10703364,-0.76544344,0.0,0.0,0.0
2026-05-10 20:56:07.190,843,1.2311927,0.10703364,-0.76544344,0.0,0.0,0.0
2026-05-10 20:56:07.200,844,1.2311927,0.10703364,-0.76544344,0.0,0.0,0.0
2026-05-10 20:56:07.210,845,1.2311927,0.10703364,-0.76544344,0.0,0.0,0.0
2026-05-10 20:56:07.220,846,1.1979663,0.16992354,-0.6849083,0.0,0.0,0.0
2026-05-10 20:56:07.230,847,1.1979663,0.16992354,-0.6849083,0.0,0.0,0.0
2026-05-10 20:56:07.240,848,1.2056116000000001,0.18490826000000002,-0.6512385666666667,0.0,0.0,0.0
2026-05-10 20:56:07.250,849,1.2209022,0.21487770000000003,-0.5838991,0.0,0.0,0.0
2026-05-10 20:56:07.260,850,1.2209022,0.21487770000000003,-0.5838991,0.0,0.0,0.0
2026-05-10 20:56:07.270,851,1.23282885,0.24156346500000003,-0.6245642499999999,0.0,0.0,0.0
2026-05-10 20:56:07.280,852,1.2368044,0.25045872,-0.6381193,0.0,0.0,0.0
2026-05-10 20:56:07.290,853,1.2424005,0.2617737,-0.7545413,0.0,0.0,0.0
2026-05-10 20:56:07.300,854,1.2424005,0.2617737,-0.7545413,0.0,0.0,0.0
2026-05-10 20:56:07.310,855,1.2424005,0.2617737,-0.7545413,0.0,0.0,0.0
2026-05-10 20:56:07.320,856,1.2539296,0.30152905,-0.9777828999999999,0.0,0.0,0.0
2026-05-10 20:56:07.330,857,1.2539296,0.30152905,-0.9777829,0.0,0.0,0.0
2026-05-10 20:56:07.340,858,1.2539296,0.30152905,-0.9777828999999999,0.0,0.0,0.0
2026-05-10 20:56:07.350,859,1.2539296,0.30152905,-0.9777828999999999,0.0,0.0,0.0
2026-05-10 20:56:07.360,860,1.2539296,0.30152905,-0.9777828999999999,0.0,0.0,0.0
2026-05-10 20:56:07.370,861,1.2539296,0.30152905,-0.9777828999999999,0.0,0.0,0.0
2026-05-10 20:56:07.380,862,1.08756878,0.40229359500000006,-1.0356269,0.0,0.0,0.0
2026-05-10 20:56:07.390,863,0.9212079599999999,0.50305814,-1.0934709,0.0,0.0,0.0
2026-05-10 20:56:07.400,864,0.9212079599999999,0.50305814,-1.0934709,0.0,0.0,0.0
2026-05-10 20:56:07.410,865,0.8520107400000001,0.53402141,-1.0497438749999999,0.0,0.0,0.0
2026-05-10 20:56:07.420,866,0.72282875,0.58368504,-0.99714065,0.0,0.0,0.0
2026-05-10 20:56:07.430,867,0.72282875,0.58368504,-0.99714065,0.0,0.0,0.0
2026-05-10 20:56:07.440,868,0.72282875,0.58368504,-0.99714065,0.0,0.0,0.0
2026-05-10 20:56:07.450,869,0.72282875,0.58368504,-0.99714065,0.0,0.0,0.0
2026-05-10 20:56:07.460,870,0.72282875,0.58368504,-0.99714065,0.0,0.0,0.0
2026-05-10 20:56:07.470,871,0.72282875,0.58368504,-0.99714065,0.0,0.0,0.0
2026-05-10 20:56:07.480,872,0.72282875,0.58368504,-0.99714065,0.0,0.0,0.0
2026-05-10 20:56:07.490,873,0.72282875,0.58368504,-0.99714065,0.0,0.0,0.0
2026-05-10 20:56:07.500,874,0.72282875,0.58368504,-0.99714065,0.0,0.0,0.0
2026-05-10 20:56:07.510,875,0.6661518833333333,0.5929307133333334,-0.9554892833333334,0.0,0.0,0.0
2026-05-10 20:56:07.520,876,0.6051324833333332,0.6103975566666667,-0.847263,0.0,0.0,0.0
2026-05-10 20:56:07.530,877,0.588792,0.61681956,-0.8035627,0.0,0.0,0.0
2026-05-10 20:56:07.540,878,0.588792,0.61681956,-0.8035627,0.0,0.0,0.0
2026-05-10 20:56:07.550,879,0.588792,0.61681956,-0.8035627,0.0,0.0,0.0
2026-05-10 20:56:07.560,880,0.588792,0.61681956,-0.8035627,0.0,0.0,0.0
2026-05-10 20:56:07.570,881,0.588792,0.61681956,-0.8035627,0.0,0.0,0.0
2026-05-10 20:56:07.580,882,0.59099895,0.6196737866666667,-0.76965342,0.0,0.0,0.0
2026-05-10 20:56:07.590,883,0.59541285,0.62538224,-0.70183486,0.0,0.0,0.0
2026-05-10 20:56:07.600,884,0.59541285,0.62538224,-0.70183486,0.0,0.0,0.0
2026-05-10 20:56:07.610,885,0.59541285,0.62538224,-0.70183486,0.0,0.0,0.0
2026-05-10 20:56:07.620,886,0.59541285,0.62538224,-0.70183486,0.0,0.0,0.0
2026-05-10 20:56:07.630,887,0.5950051133333333,0.62619776,-0.60564219,0.0,0.0,0.0
2026-05-10 20:56:07.640,888,0.59418964,0.6278288,-0.41325685,0.0,0.0,0.0
2026-05-10 20:56:07.650,889,0.59418964,0.6278288,-0.41325685,0.0,0.0,0.0
2026-05-10 20:56:07.660,890,0.58710247,0.6189067500000001,-0.33894494,0.0,0.0,0.0
2026-05-10 20:56:07.670,891,0.5800153,0.6099847,-0.26463303,0.0,0.0,0.0
2026-05-10 20:56:07.680,892,0.5800153,0.6099847,-0.26463303,0.0,0.0,0.0
2026-05-10 20:56:07.690,893,0.5800153,0.6099847,-0.26463303,0.0,0.0,0.0
2026-05-10 20:56:07.700,894,0.5800153,0.6099847,-0.26463303,0.0,0.0,0.0
2026-05-10 20:56:07.710,895,0.5800153,0.6099847,-0.26463303,0.0,0.0,0.0
2026-05-10 20:56:07.720,896,0.5800153,0.6099847,-0.26463303,0.0,0.0,0.0
2026-05-10 20:56:07.730,897,0.6729816,0.57044345,-0.25882262,0.0,0.0,0.0
2026-05-10 20:56:07.740,898,0.6729816,0.57044345,-0.25882262,0.0,0.0,0.0
2026-05-10 20:56:07.750,899,0.6729816,0.57044345,-0.25882262,0.0,0.0,0.0
2026-05-10 20:56:07.760,900,0.6729816,0.57044345,-0.25882262,0.0,0.0,0.0
2026-05-10 20:56:07.770,901,0.6729816,0.57044345,-0.25882262,0.0,0.0,0.0
2026-05-10 20:56:07.780,902,0.6729816,0.57044345,-0.25882262,0.0,0.0,0.0
2026-05-10 20:56:07.790,903,0.6729816,0.57044345,-0.25882262,0.0,0.0,0.0
2026-05-10 20:56:07.800,904,0.6729816,0.57044345,-0.25882262,0.0,0.0,0.0
2026-05-10 20:56:07.810,905,0.6729816,0.57044345,-0.25882262,0.0,0.0,0.0
2026-05-10 20:56:07.820,906,0.6729816,0.57044345,-0.25882262,0.0,0.0,0.0
2026-05-10 20:56:07.830,907,0.7984352466666667,0.51614171,-0.27587666,0.0,0.0,0.0
2026-05-10 20:56:07.840,908,0.8611620700000001,0.48899084,-0.28440368,0.0,0.0,0.0
2026-05-10 20:56:07.850,909,0.8611620700000001,0.48899084,-0.28440368,0.0,0.0,0.0
2026-05-10 20:56:07.860,910,0.919365435,0.45040521,-0.37446484,0.0,0.0,0.0
2026-05-10 20:56:07.870,911,0.9775687999999999,0.41181958,-0.464526,0.0,0.0,0.0
2026-05-10 20:56:07.880,912,0.9775687999999999,0.41181958,-0.464526,0.0,0.0,0.0
2026-05-10 20:56:07.890,913,0.9775687999999999,0.41181958,-0.464526,0.0,0.0,0.0
2026-05-10 20:56:07.900,914,0.9775687999999999,0.41181958,-0.464526,0.0,0.0,0.0
2026-05-10 20:56:07.910,915,1.0052216999999999,0.38613150500000004,-0.51304664,0.0,0.0,0.0
2026-05-10 20:56:07.920,916,1.0881804,0.30906728,-0.65860856,0.0,0.0,0.0
2026-05-10 20:56:07.930,917,1.1420030666666667,0.25844545999999996,-0.8216462533333333,0.0,0.0,0.0
2026-05-10 20:56:07.940,918,1.1689144,0.23313455000000002,-0.9031651000000002,0.0,0.0,0.0
2026-05-10 20:56:07.950,919,1.1689144,0.23313455000000002,-0.9031651000000002,0.0,0.0,0.0
2026-05-10 20:56:07.960,920,1.1689144,0.23313455000000002,-0.9031651000000002,0.0,0.0,0.0
2026-05-10 20:56:07.970,921,1.1689144,0.23313455000000002,-0.9031651000000002,0.0,0.0,0.0
2026-05-10 20:56:07.980,922,1.1689144,0.23313455000000002,-0.9031651000000002,0.0,0.0,0.0
2026-05-10 20:56:07.990,923,1.173448,0.19862385,-0.940474,0.0,0.0,0.0
2026-05-10 20:56:08.000,924,1.1779816,0.16411315,-0.9777828999999999,0.0,0.0,0.0
2026-05-10 20:56:08.010,925,1.1779816,0.16411315,-0.9777828999999999,0.0,0.0,0.0
2026-05-10 20:56:08.020,926,1.1779816,0.16411315,-0.9777828999999999,0.0,0.0,0.0
2026-05-10 20:56:08.030,927,1.1779816,0.16411315,-0.9777828999999999,0.0,0.0,0.0
2026-05-10 20:56:08.040,928,1.1779816,0.16411315,-0.9777828999999999,0.0,0.0,0.0
2026-05-10 20:56:08.050,929,1.1779816,0.16411315,-0.9777829,0.0,0.0,0.0
2026-05-10 20:56:08.060,930,1.1779816,0.16411315,-0.9777828999999999,0.0,0.0,0.0
2026-05-10 20:56:08.070,931,1.1779816,0.16411315,-0.9777828999999999,0.0,0.0,0.0
2026-05-10 20:56:08.080,932,1.1779816,0.16411315,-0.9777828999999999,0.0,0.0,0.0
2026-05-10 20:56:08.090,933,1.1779816,0.16411315,-0.9777828999999999,0.0,0.0,0.0
2026-05-10 20:56:08.100,934,1.2010907333333334,0.045050968000000004,-0.9242966333333333,0.0,0.0,0.0
2026-05-10 20:56:08.110,935,1.2126453,-0.014480123,-0.8975535,0.0,0.0,0.0
2026-05-10 20:56:08.120,936,1.2126453,-0.014480123,-0.8975535,0.0,0.0,0.0
2026-05-10 20:56:08.130,937,1.2126453,-0.014480123,-0.8975535,0.0,0.0,0.0
2026-05-10 20:56:08.140,938,1.2126453,-0.014480123,-0.8975535,0.0,0.0,0.0
2026-05-10 20:56:08.150,939,1.2126453,-0.014480123,-0.8975535,0.0,0.0,0.0
2026-05-10 20:56:08.160,940,1.2126453,-0.014480123,-0.8975535,0.0,0.0,0.0
2026-05-10 20:56:08.170,941,1.2800153,-0.111116216,-0.7874617599999999,0.0,0.0,0.0
2026-05-10 20:56:08.180,942,1.2800153,-0.111116216,-0.7874617599999999,0.0,0.0,0.0
2026-05-10 20:56:08.190,943,1.2800153,-0.111116216,-0.78746176,0.0,0.0,0.0
2026-05-10 20:56:08.200,944,1.2800153,-0.111116216,-0.7874617599999999,0.0,0.0,0.0
2026-05-10 20:56:08.210,945,1.2800153,-0.111116216,-0.7874617599999999,0.0,0.0,0.0
2026-05-10 20:56:08.220,946,1.2800153,-0.111116216,-0.7874617599999999,0.0,0.0,0.0
2026-05-10 20:56:08.230,947,1.3351631333333334,-0.1777472006666667,-0.7585117066666666,0.0,0.0,0.0
2026-05-10 20:56:08.240,948,1.4454588,-0.31100917,-0.7006116,0.0,0.0,0.0
2026-05-10 20:56:08.250,949,1.5874618,-0.43986237,-0.66931194,0.0,0.0,0.0
2026-05-10 20:56:08.260,950,1.618312966666667,-0.4762181466666666,-0.6651019433333333,0.0,0.0,0.0
2026-05-10 20:56:08.270,951,1.6800153,-0.5489297,-0.65668195,0.0,0.0,0.0
2026-05-10 20:56:08.280,952,1.6800153,-0.5489297,-0.65668195,0.0,0.0,0.0
2026-05-10 20:56:08.290,953,1.6800153,-0.5489297,-0.65668195,0.0,0.0,0.0
2026-05-10 20:56:08.300,954,1.6800153,-0.5489297,-0.65668195,0.0,0.0,0.0
2026-05-10 20:56:08.310,955,1.69301225,-0.59727449,-0.6426911375,0.0,0.0,0.0
2026-05-10 20:56:08.320,956,1.7320031,-0.74230886,-0.6007187,0.0,0.0,0.0
2026-05-10 20:56:08.330,957,1.7320031,-0.74230886,-0.6007187,0.0,0.0,0.0
2026-05-10 20:56:08.340,958,1.7320031,-0.74230886,-0.6007187,0.0,0.0,0.0
2026-05-10 20:56:08.350,959,1.7320031,-0.74230886,-0.6007187,0.0,0.0,0.0
2026-05-10 20:56:08.360,960,1.7320031,-0.74230886,-0.6007187,0.0,0.0,0.0
2026-05-10 20:56:08.370,961,1.7320031,-0.74230886,-0.6007187,0.0,0.0,0.0
2026-05-10 20:56:08.380,962,1.7320031,-0.74230886,-0.6007187,0.0,0.0,0.0
2026-05-10 20:56:08.390,963,1.7320031,-0.74230886,-0.6007187,0.0,0.0,0.0
2026-05-10 20:56:08.400,964,1.7320031,-0.74230886,-0.6007187,0.0,0.0,0.0
2026-05-10 20:56:08.410,965,1.7320031,-0.74230886,-0.6007187,0.0,0.0,0.0
2026-05-10 20:56:08.420,966,1.7320031,-0.74230886,-0.6007187,0.0,0.0,0.0
2026-05-10 20:56:08.430,967,1.7320031,-0.74230886,-0.6007187,0.0,0.0,0.0
2026-05-10 20:56:08.440,968,1.7320031,-0.74230886,-0.6007187,0.0,0.0,0.0
2026-05-10 20:56:08.450,969,1.7357798500000001,-0.7781345550000001,-0.5963303,0.0,0.0,0.0
2026-05-10 20:56:08.460,970,1.7395566,-0.81396025,-0.5919419,0.0,0.0,0.0
2026-05-10 20:56:08.470,971,1.7395566,-0.81396025,-0.5919419,0.0,0.0,0.0
2026-05-10 20:56:08.480,972,1.7395566,-0.81396025,-0.5919419,0.0,0.0,0.0
2026-05-10 20:56:08.490,973,1.7152957333333332,-0.83706935,-0.5942558666666667,0.0,0.0,0.0
2026-05-10 20:56:08.500,974,1.7031653,-0.8486239000000001,-0.59541285,0.0,0.0,0.0
2026-05-10 20:56:08.510,975,1.7031653,-0.8486239,-0.59541285,0.0,0.0,0.0
2026-05-10 20:56:08.520,976,1.7031653,-0.8486239000000001,-0.59541285,0.0,0.0,0.0
2026-05-10 20:56:08.530,977,1.7031653,-0.8486239000000001,-0.59541285,0.0,0.0,0.0
2026-05-10 20:56:08.540,978,1.7031653,-0.8486239,-0.59541285,0.0,0.0,0.0
2026-05-10 20:56:08.550,979,1.4850153,-0.8889909,-0.66931194,0.0,0.0,0.0
2026-05-10 20:56:08.560,980,1.4850153,-0.8889909,-0.66931194,0.0,0.0,0.0
2026-05-10 20:56:08.570,981,1.4850153,-0.8889909,-0.66931194,0.0,0.0,0.0
2026-05-10 20:56:08.580,982,1.4850153,-0.8889909,-0.66931194,0.0,0.0,0.0
2026-05-10 20:56:08.590,983,1.3834506,-0.8989500666666667,-0.66999493,0.0,0.0,0.0
2026-05-10 20:56:08.600,984,1.2828747,-0.90744644,-0.6671713,0.0,0.0,0.0
2026-05-10 20:56:08.610,985,1.2047911000000002,-0.9130122466666667,-0.64189094,0.0,0.0,0.0
2026-05-10 20:56:08.620,986,0.9101988,-0.9441438,-0.5160092,0.0,0.0,0.0
2026-05-10 20:56:08.630,987,0.9101988,-0.9441438,-0.5160092,0.0,0.0,0.0
2026-05-10 20:56:08.640,988,0.8255199000000001,-0.9504638666666666,-0.4566463,0.0,0.0,0.0
2026-05-10 20:56:08.650,989,0.6561621,-0.963104,-0.3379205,0.0,0.0,0.0
2026-05-10 20:56:08.660,990,0.6561621,-0.963104,-0.3379205,0.0,0.0,0.0
2026-05-10 20:56:08.670,991,0.5148777,-0.9626911000000001,-0.2490367,0.0,0.0,0.0
2026-05-10 20:56:08.680,992,0.5148777,-0.9626911,-0.2490367,0.0,0.0,0.0
2026-05-10 20:56:08.690,993,0.3449898333333333,-0.9538532333333333,-0.14913863333333333,0.0,0.0,0.0
2026-05-10 20:56:08.700,994,0.2600459,-0.9494343,-0.0991896,0.0,0.0,0.0
2026-05-10 20:56:08.710,995,0.2600459,-0.9494343,-0.0991896,0.0,0.0,0.0
2026-05-10 20:56:08.720,996,0.2600459,-0.9494343,-0.0991896,0.0,0.0,0.0
2026-05-10 20:56:08.730,997,0.2600459,-0.9494343,-0.0991896,0.0,0.0,0.0
2026-05-10 20:56:08.740,998,0.2600459,-0.9494343,-0.0991896,0.0,0.0,0.0
2026-05-10 20:56:08.750,999,0.2600459,-0.9494343,-0.0991896,0.0,0.0,0.0
2026-05-10 20:56:08.760,1000,0.2600459,-0.9494343,-0.0991896,0.0,0.0,0.0
2026-05-10 20:56:08.770,1001,0.2600459,-0.9494343,-0.0991896,0.0,0.0,0.0
