timestamp,id,acc_x,acc_y,acc_z,gyro_x,gyro_y,gyro_z
2026-05-10 20:51:05.790,1,-0.35779816,0.61509174,0.37808868,0.0,0.0,0.0
2026-05-10 20:51:05.800,2,-0.35779816,0.61509174,0.37808868,0.0,0.0,0.0
2026-05-10 20:51:05.810,3,-0.35779816,0.61509174,0.37808868,0.0,0.0,0.0
2026-05-10 20:51:05.820,4,-0.35779816,0.61509174,0.37808868,0.0,0.0,0.0
2026-05-10 20:51:05.830,5,-0.35779816,0.61509174,0.37808868,0.0,0.0,0.0
2026-05-10 20:51:05.840,6,-0.35779816,0.61509174,0.37808868,0.0,0.0,0.0
2026-05-10 20:51:05.850,7,-0.35779816,0.61509174,0.37808868,0.0,0.0,0.0
2026-05-10 20:51:05.860,8,-0.35779816,0.61509174,0.37808868,0.0,0.0,0.0
2026-05-10 20:51:05.870,9,-0.35779816,0.61509174,0.37808868,0.0,0.0,0.0
2026-05-10 20:51:05.880,10,-0.35779816,0.61509174,0.37808868,0.0,0.0,0.0
2026-05-10 20:51:05.890,11,-0.35779816,0.61509174,0.37808868,0.0,0.0,0.0
2026-05-10 20:51:05.900,12,-0.35779816,0.61509174,0.37808868,0.0,0.0,0.0
2026-05-10 20:51:05.910,13,-0.35779816,0.61509174,0.37808868,0.0,0.0,0.0
2026-05-10 20:51:05.920,14,-0.35779816,0.61509174,0.37808868,0.0,0.0,0.0
2026-05-10 20:51:05.930,15,-0.35779816,0.61509174,0.37808868,0.0,0.0,0.0
2026-05-10 20:51:05.940,16,-0.20058485999999998,0.530355505,0.42770641,0.0,0.0,0.0
2026-05-10 20:51:05.950,17,0.27105504,0.2761468,0.5765596,0.0,0.0,0.0
2026-05-10 20:51:05.960,18,0.27105504,0.2761468,0.5765596,0.0,0.0,0.0
2026-05-10 20:51:05.970,19,0.27105504,0.2761468,0.5765596,0.0,0.0,0.0
2026-05-10 20:51:05.980,20,0.27105504,0.2761468,0.5765596,0.0,0.0,0.0
2026-05-10 20:51:05.990,21,0.27105504,0.2761468,0.5765596,0.0,0.0,0.0
2026-05-10 20:51:06.000,22,0.27105504,0.2761468,0.5765596,0.0,0.0,0.0
2026-05-10 20:51:06.010,23,0.27105504,0.2761468,0.5765596,0.0,0.0,0.0
2026-05-10 20:51:06.020,24,0.27105504,0.2761468,0.5765596,0.0,0.0,0.0
2026-05-10 20:51:06.030,25,0.27105504,0.2761468,0.5765596,0.0,0.0,0.0
2026-05-10 20:51:06.040,26,0.27105504,0.2761468,0.5765596,0.0,0.0,0.0
2026-05-10 20:51:06.050,27,0.27105504,0.2761468,0.5765596,0.0,0.0,0.0
2026-05-10 20:51:06.060,28,0.27105504,0.2761468,0.5765596,0.0,0.0,0.0
2026-05-10 20:51:06.070,29,0.27105504,0.2761468,0.5765596,0.0,0.0,0.0
2026-05-10 20:51:06.080,30,0.27105504,0.2761468,0.5765596,0.0,0.0,0.0
2026-05-10 20:51:06.090,31,0.27105504,0.2761468,0.5765596,0.0,0.0,0.0
2026-05-10 20:51:06.100,32,0.27105504,0.2761468,0.5765596,0.0,0.0,0.0
2026-05-10 20:51:06.110,33,0.27105504,0.2761468,0.5765596,0.0,0.0,0.0
2026-05-10 20:51:06.120,34,0.27105504,0.2761468,0.5765596,0.0,0.0,0.0
2026-05-10 20:51:06.130,35,0.27105504,0.2761468,0.5765596,0.0,0.0,0.0
2026-05-10 20:51:06.140,36,0.27105504,0.2761468,0.5765596,0.0,0.0,0.0
2026-05-10 20:51:06.150,37,0.27105504,0.2761468,0.5765596,0.0,0.0,0.0
2026-05-10 20:51:06.160,38,0.27105504,0.2761468,0.5765596,0.0,0.0,0.0
2026-05-10 20:51:06.170,39,0.27105504,0.2761468,0.5765596,0.0,0.0,0.0
2026-05-10 20:51:06.180,40,0.27105504,0.2761468,0.5765596,0.0,0.0,0.0
2026-05-10 20:51:06.190,41,0.27105504,0.2761468,0.5765596,0.0,0.0,0.0
2026-05-10 20:51:06.200,42,0.27105504,0.2761468,0.5765596,0.0,0.0,0.0
2026-05-10 20:51:06.210,43,0.27105504,0.2761468,0.5765596,0.0,0.0,0.0
2026-05-10 20:51:06.220,44,0.27105504,0.2761468,0.5765596,0.0,0.0,0.0
2026-05-10 20:51:06.230,45,0.27105504,0.2761468,0.5765596,0.0,0.0,0.0
2026-05-10 20:51:06.240,46,0.27105504,0.2761468,0.5765596,0.0,0.0,0.0
2026-05-10 20:51:06.250,47,0.27105504,0.2761468,0.5765596,0.0,0.0,0.0
2026-05-10 20:51:06.260,48,0.27105504,0.2761468,0.5765596,0.0,0.0,0.0
2026-05-10 20:51:06.270,49,0.27105504,0.2761468,0.5765596,0.0,0.0,0.0
2026-05-10 20:51:06.280,50,0.27105504,0.2761468,0.5765596,0.0,0.0,0.0
2026-05-10 20:51:06.290,51,0.27105504,0.2761468,0.5765596,0.0,0.0,0.0
2026-05-10 20:51:06.300,52,0.27105504,0.2761468,0.5765596,0.0,0.0,0.0
2026-05-10 20:51:06.310,53,0.27105504,0.2761468,0.5765596,0.0,0.0,0.0
2026-05-10 20:51:06.320,54,0.27105504,0.2761468,0.5765596,0.0,0.0,0.0
2026-05-10 20:51:06.330,55,0.27105504,0.2761468,0.5765596,0.0,0.0,0.0
2026-05-10 20:51:06.340,56,0.27105504,0.2761468,0.5765596,0.0,0.0,0.0
2026-05-10 20:51:06.350,57,0.27105504,0.2761468,0.5765596,0.0,0.0,0.0
2026-05-10 20:51:06.360,58,0.27105504,0.2761468,0.5765596,0.0,0.0,0.0
2026-05-10 20:51:06.370,59,0.27105504,0.2761468,0.5765596,0.0,0.0,0.0
2026-05-10 20:51:06.380,60,0.27105504,0.2761468,0.5765596,0.0,0.0,0.0
2026-05-10 20:51:06.390,61,0.27105504,0.2761468,0.5765596,0.0,0.0,0.0
2026-05-10 20:51:06.400,62,0.27105504,0.2761468,0.5765596,0.0,0.0,0.0
2026-05-10 20:51:06.410,63,0.27105504,0.2761468,0.5765596,0.0,0.0,0.0
2026-05-10 20:51:06.420,64,0.27105504,0.2761468,0.5765596,0.0,0.0,0.0
2026-05-10 20:51:06.430,65,0.27105504,0.2761468,0.5765596,0.0,0.0,0.0
2026-05-10 20:51:06.440,66,0.27105504,0.2761468,0.5765596,0.0,0.0,0.0
2026-05-10 20:51:06.450,67,0.27105504,0.2761468,0.5765596,0.0,0.0,0.0
2026-05-10 20:51:06.460,68,0.27105504,0.2761468,0.5765596,0.0,0.0,0.0
2026-05-10 20:51:06.470,69,0.27105504,0.2761468,0.5765596,0.0,0.0,0.0
2026-05-10 20:51:06.480,70,0.27105504,0.2761468,0.5765596,0.0,0.0,0.0
2026-05-10 20:51:06.490,71,0.27105504,0.2761468,0.5765596,0.0,0.0,0.0
2026-05-10 20:51:06.500,72,0.27105504,0.2761468,0.5765596,0.0,0.0,0.0
2026-05-10 20:51:06.510,73,0.27105504,0.2761468,0.5765596,0.0,0.0,0.0
2026-05-10 20:51:06.520,74,0.27105504,0.2761468,0.5765596,0.0,0.0,0.0
2026-05-10 20:51:06.530,75,0.27105504,0.2761468,0.5765596,0.0,0.0,0.0
2026-05-10 20:51:06.540,76,0.27105504,0.2761468,0.5765596,0.0,0.0,0.0
2026-05-10 20:51:06.550,77,0.27105504,0.2761468,0.5765596,0.0,0.0,0.0
2026-05-10 20:51:06.560,78,0.27105504,0.2761468,0.5765596,0.0,0.0,0.0
2026-05-10 20:51:06.570,79,0.27105504,0.2761468,0.5765596,0.0,0.0,0.0
2026-05-10 20:51:06.580,80,0.27105504,0.2761468,0.5765596,0.0,0.0,0.0
2026-05-10 20:51:06.590,81,0.27105504,0.2761468,0.5765596,0.0,0.0,0.0
2026-05-10 20:51:06.600,82,0.27105504,0.2761468,0.5765596,0.0,0.0,0.0
2026-05-10 20:51:06.610,83,0.27105504,0.2761468,0.5765596,0.0,0.0,0.0
2026-05-10 20:51:06.620,84,0.27105504,0.2761468,0.5765596,0.0,0.0,0.0
2026-05-10 20:51:06.630,85,0.27105504,0.2761468,0.5765596,0.0,0.0,0.0
2026-05-10 20:51:06.640,86,0.27105504,0.2761468,0.5765596,0.0,0.0,0.0
2026-05-10 20:51:06.650,87,0.27105504,0.2761468,0.5765596,0.0,0.0,0.0
2026-05-10 20:51:06.660,88,0.27105504,0.2761468,0.5765596,0.0,0.0,0.0
2026-05-10 20:51:06.670,89,0.27105504,0.2761468,0.5765596,0.0,0.0,0.0
2026-05-10 20:51:06.680,90,0.27105504,0.2761468,0.5765596,0.0,0.0,0.0
2026-05-10 20:51:06.690,91,0.27105504,0.2761468,0.5765596,0.0,0.0,0.0
2026-05-10 20:51:06.700,92,0.27105504,0.2761468,0.5765596,0.0,0.0,0.0
2026-05-10 20:51:06.710,93,0.27105504,0.2761468,0.5765596,0.0,0.0,0.0
2026-05-10 20:51:06.720,94,0.27105504,0.2761468,0.5765596,0.0,0.0,0.0
2026-05-10 20:51:06.730,95,0.27105504,0.2761468,0.5765596,0.0,0.0,0.0
2026-05-10 20:51:06.740,96,0.27105504,0.2761468,0.5765596,0.0,0.0,0.0
2026-05-10 20:51:06.750,97,0.27105504,0.2761468,0.5765596,0.0,0.0,0.0
2026-05-10 20:51:06.760,98,0.27105504,0.2761468,0.5765596,0.0,0.0,0.0
2026-05-10 20:51:06.770,99,0.27105504,0.2761468,0.5765596,0.0,0.0,0.0
2026-05-10 20:51:06.780,100,0.27105504,0.2761468,0.5765596,0.0,0.0,0.0
2026-05-10 20:51:06.790,101,0.27105504,0.2761468,0.5765596,0.0,0.0,0.0
2026-05-10 20:51:06.800,102,0.27105504,0.2761468,0.5765596,0.0,0.0,0.0
2026-05-10 20:51:06.810,103,0.27105504,0.2761468,0.5765596,0.0,0.0,0.0
2026-05-10 20:51:06.820,104,0.27105504,0.2761468,0.5765596,0.0,0.0,0.0
2026-05-10 20:51:06.830,105,0.27105504,0.2761468,0.5765596,0.0,0.0,0.0
2026-05-10 20:51:06.840,106,0.27105504,0.2761468,0.5765596,0.0,0.0,0.0
2026-05-10 20:51:06.850,107,0.27105504,0.2761468,0.5765596,0.0,0.0,0.0
2026-05-10 20:51:06.860,108,0.27105504,0.2761468,0.5765596,0.0,0.0,0.0
2026-05-10 20:51:06.870,109,0.27105504,0.2761468,0.5765596,0.0,0.0,0.0
2026-05-10 20:51:06.880,110,0.27105504,0.2761468,0.5765596,0.0,0.0,0.0
2026-05-10 20:51:06.890,111,0.27105504,0.2761468,0.5765596,0.0,0.0,0.0
2026-05-10 20:51:06.900,112,0.27105504,0.2761468,0.5765596,0.0,0.0,0.0
2026-05-10 20:51:06.910,113,0.27105504,0.2761468,0.5765596,0.0,0.0,0.0
2026-05-10 20:51:06.920,114,0.27105504,0.2761468,0.5765596,0.0,0.0,0.0
2026-05-10 20:51:06.930,115,0.27105504,0.2761468,0.5765596,0.0,0.0,0.0
2026-05-10 20:51:06.940,116,0.27105504,0.2761468,0.5765596,0.0,0.0,0.0
2026-05-10 20:51:06.950,117,0.27105504,0.2761468,0.5765596,0.0,0.0,0.0
2026-05-10 20:51:06.960,118,0.27105504,0.2761468,0.5765596,0.0,0.0,0.0
2026-05-10 20:51:06.970,119,0.27105504,0.2761468,0.5765596,0.0,0.0,0.0
2026-05-10 20:51:06.980,120,0.27105504,0.2761468,0.5765596,0.0,0.0,0.0
2026-05-10 20:51:06.990,121,0.27105504,0.2761468,0.5765596,0.0,0.0,0.0
2026-05-10 20:51:07.000,122,0.27105504,0.2761468,0.5765596,0.0,0.0,0.0
2026-05-10 20:51:07.010,123,0.27105504,0.2761468,0.5765596,0.0,0.0,0.0
2026-05-10 20:51:07.020,124,0.27105504,0.2761468,0.5765596,0.0,0.0,0.0
2026-05-10 20:51:07.030,125,0.27105504,0.2761468,0.5765596,0.0,0.0,0.0
2026-05-10 20:51:07.040,126,0.27105504,0.2761468,0.5765596,0.0,0.0,0.0
2026-05-10 20:51:07.050,127,0.27105504,0.2761468,0.5765596,0.0,0.0,0.0
2026-05-10 20:51:07.060,128,0.27105504,0.2761468,0.5765596,0.0,0.0,0.0
2026-05-10 20:51:07.070,129,0.27105504,0.2761468,0.5765596,0.0,0.0,0.0
2026-05-10 20:51:07.080,130,0.27105504,0.2761468,0.5765596,0.0,0.0,0.0
2026-05-10 20:51:07.090,131,0.27105504,0.2761468,0.5765596,0.0,0.0,0.0
2026-05-10 20:51:07.100,132,0.27105504,0.2761468,0.5765596,0.0,0.0,0.0
2026-05-10 20:51:07.110,133,0.27105504,0.2761468,0.5765596,0.0,0.0,0.0
2026-05-10 20:51:07.120,134,0.27105504,0.2761468,0.5765596,0.0,0.0,0.0
2026-05-10 20:51:07.130,135,0.27105504,0.2761468,0.5765596,0.0,0.0,0.0
2026-05-10 20:51:07.140,136,0.27105504,0.2761468,0.5765596,0.0,0.0,0.0
2026-05-10 20:51:07.150,137,0.27105504,0.2761468,0.5765596,0.0,0.0,0.0
2026-05-10 20:51:07.160,138,0.27105504,0.2761468,0.5765596,0.0,0.0,0.0
2026-05-10 20:51:07.170,139,0.27105504,0.2761468,0.5765596,0.0,0.0,0.0
2026-05-10 20:51:07.180,140,0.27105504,0.2761468,0.5765596,0.0,0.0,0.0
2026-05-10 20:51:07.190,141,0.27105504,0.2761468,0.5765596,0.0,0.0,0.0
2026-05-10 20:51:07.200,142,0.27105504,0.2761468,0.5765596,0.0,0.0,0.0
2026-05-10 20:51:07.210,143,0.27105504,0.2761468,0.5765596,0.0,0.0,0.0
2026-05-10 20:51:07.220,144,0.27105504,0.2761468,0.5765596,0.0,0.0,0.0
2026-05-10 20:51:07.230,145,0.27105504,0.2761468,0.5765596,0.0,0.0,0.0
2026-05-10 20:51:07.240,146,0.27105504,0.2761468,0.5765596,0.0,0.0,0.0
2026-05-10 20:51:07.250,147,0.27105504,0.2761468,0.5765596,0.0,0.0,0.0
2026-05-10 20:51:07.260,148,0.27105504,0.2761468,0.5765596,0.0,0.0,0.0
2026-05-10 20:51:07.270,149,0.27105504,0.2761468,0.5765596,0.0,0.0,0.0
2026-05-10 20:51:07.280,150,0.27105504,0.2761468,0.5765596,0.0,0.0,0.0
2026-05-10 20:51:07.290,151,0.27105504,0.2761468,0.5765596,0.0,0.0,0.0
2026-05-10 20:51:07.300,152,0.27105504,0.2761468,0.5765596,0.0,0.0,0.0
2026-05-10 20:51:07.310,153,0.27105504,0.2761468,0.5765596,0.0,0.0,0.0
2026-05-10 20:51:07.320,154,0.27105504,0.2761468,0.5765596,0.0,0.0,0.0
2026-05-10 20:51:07.330,155,0.27105504,0.2761468,0.5765596,0.0,0.0,0.0
2026-05-10 20:51:07.340,156,0.27105504,0.2761468,0.5765596,0.0,0.0,0.0
2026-05-10 20:51:07.350,157,0.27105504,0.2761468,0.5765596,0.0,0.0,0.0
2026-05-10 20:51:07.360,158,0.27105504,0.2761468,0.5765596,0.0,0.0,0.0
2026-05-10 20:51:07.370,159,0.27105504,0.2761468,0.5765596,0.0,0.0,0.0
2026-05-10 20:51:07.380,160,0.27105504,0.2761468,0.5765596,0.0,0.0,0.0
2026-05-10 20:51:07.390,161,0.27105504,0.2761468,0.5765596,0.0,0.0,0.0
2026-05-10 20:51:07.400,162,0.27105504,0.2761468,0.5765596,0.0,0.0,0.0
2026-05-10 20:51:07.410,163,0.27105504,0.2761468,0.5765596,0.0,0.0,0.0
2026-05-10 20:51:07.420,164,0.27105504,0.2761468,0.5765596,0.0,0.0,0.0
2026-05-10 20:51:07.430,165,0.27105504,0.2761468,0.5765596,0.0,0.0,0.0
2026-05-10 20:51:07.440,166,0.27105504,0.2761468,0.5765596,0.0,0.0,0.0
2026-05-10 20:51:07.450,167,0.27105504,0.2761468,0.5765596,0.0,0.0,0.0
2026-05-10 20:51:07.460,168,0.27105504,0.2761468,0.5765596,0.0,0.0,0.0
2026-05-10 20:51:07.470,169,0.27105504,0.2761468,0.5765596,0.0,0.0,0.0
2026-05-10 20:51:07.480,170,0.27105504,0.2761468,0.5765596,0.0,0.0,0.0
2026-05-10 20:51:07.490,171,0.27105504,0.2761468,0.5765596,0.0,0.0,0.0
2026-05-10 20:51:07.500,172,0.27105504,0.2761468,0.5765596,0.0,0.0,0.0
2026-05-10 20:51:07.510,173,0.27105504,0.2761468,0.5765596,0.0,0.0,0.0
2026-05-10 20:51:07.520,174,0.27105504,0.2761468,0.5765596,0.0,0.0,0.0
2026-05-10 20:51:07.530,175,0.27105504,0.2761468,0.5765596,0.0,0.0,0.0
2026-05-10 20:51:07.540,176,0.27105504,0.2761468,0.5765596,0.0,0.0,0.0
2026-05-10 20:51:07.550,177,0.27105504,0.2761468,0.5765596,0.0,0.0,0.0
2026-05-10 20:51:07.560,178,0.27105504,0.2761468,0.5765596,0.0,0.0,0.0
2026-05-10 20:51:07.570,179,0.27105504,0.2761468,0.5765596,0.0,0.0,0.0
2026-05-10 20:51:07.580,180,0.27105504,0.2761468,0.5765596,0.0,0.0,0.0
2026-05-10 20:51:07.590,181,0.27105504,0.2761468,0.5765596,0.0,0.0,0.0
2026-05-10 20:51:07.600,182,0.27105504,0.2761468,0.5765596,0.0,0.0,0.0
2026-05-10 20:51:07.610,183,0.27105504,0.2761468,0.5765596,0.0,0.0,0.0
2026-05-10 20:51:07.620,184,0.27105504,0.2761468,0.5765596,0.0,0.0,0.0
2026-05-10 20:51:07.630,185,0.27105504,0.2761468,0.5765596,0.0,0.0,0.0
2026-05-10 20:51:07.640,186,0.27105504,0.2761468,0.5765596,0.0,0.0,0.0
2026-05-10 20:51:07.650,187,0.27105504,0.2761468,0.5765596,0.0,0.0,0.0
2026-05-10 20:51:07.660,188,0.27105504,0.2761468,0.5765596,0.0,0.0,0.0
2026-05-10 20:51:07.670,189,0.27105504,0.2761468,0.5765596,0.0,0.0,0.0
2026-05-10 20:51:07.680,190,0.27105504,0.2761468,0.5765596,0.0,0.0,0.0
2026-05-10 20:51:07.690,191,0.27105504,0.2761468,0.5765596,0.0,0.0,0.0
2026-05-10 20:51:07.700,192,0.27105504,0.2761468,0.5765596,0.0,0.0,0.0
2026-05-10 20:51:07.710,193,0.27105504,0.2761468,0.5765596,0.0,0.0,0.0
2026-05-10 20:51:07.720,194,0.27105504,0.2761468,0.5765596,0.0,0.0,0.0
2026-05-10 20:51:07.730,195,0.27105504,0.2761468,0.5765596,0.0,0.0,0.0
2026-05-10 20:51:07.740,196,0.27105504,0.2761468,0.5765596,0.0,0.0,0.0
2026-05-10 20:51:07.750,197,0.27105504,0.2761468,0.5765596,0.0,0.0,0.0
2026-05-10 20:51:07.760,198,0.27105504,0.2761468,0.5765596,0.0,0.0,0.0
2026-05-10 20:51:07.770,199,0.27105504,0.2761468,0.5765596,0.0,0.0,0.0
2026-05-10 20:51:07.780,200,0.27105504,0.2761468,0.5765596,0.0,0.0,0.0
2026-05-10 20:51:07.790,201,0.27105504,0.2761468,0.5765596,0.0,0.0,0.0
2026-05-10 20:51:07.800,202,0.27105504,0.2761468,0.5765596,0.0,0.0,0.0
2026-05-10 20:51:07.810,203,0.27105504,0.2761468,0.5765596,0.0,0.0,0.0
2026-05-10 20:51:07.820,204,0.27105504,0.2761468,0.5765596,0.0,0.0,0.0
2026-05-10 20:51:07.830,205,0.27105504,0.2761468,0.5765596,0.0,0.0,0.0
2026-05-10 20:51:07.840,206,0.27105504,0.2761468,0.5765596,0.0,0.0,0.0
2026-05-10 20:51:07.850,207,0.17883281966666667,0.19007645966666667,0.5099948833333333,0.0,0.0,0.0
2026-05-10 20:51:07.860,208,-0.005611621,0.017935779,0.37686545,0.0,0.0,0.0
2026-05-10 20:51:07.870,209,-0.005611621,0.017935779,0.37686545,0.0,0.0,0.0
2026-05-10 20:51:07.880,210,-0.005611621,0.017935779,0.37686545,0.0,0.0,0.0
2026-05-10 20:51:07.890,211,-0.005611621,0.017935779,0.37686545,0.0,0.0,0.0
2026-05-10 20:51:07.900,212,-0.005611621,0.017935779,0.37686545,0.0,0.0,0.0
2026-05-10 20:51:07.910,213,-0.005611621,0.017935779,0.37686545,0.0,0.0,0.0
2026-05-10 20:51:07.920,214,-0.005611621,0.017935779,0.37686545,0.0,0.0,0.0
2026-05-10 20:51:07.930,215,-0.005611621,0.017935779,0.37686545,0.0,0.0,0.0
2026-05-10 20:51:07.940,216,-0.005611621,0.017935779,0.37686545,0.0,0.0,0.0
2026-05-10 20:51:07.950,217,-0.005611621,0.017935779,0.37686545,0.0,0.0,0.0
2026-05-10 20:51:07.960,218,-0.005611621,0.017935779,0.37686545,0.0,0.0,0.0
2026-05-10 20:51:07.970,219,-0.005611621,0.017935779,0.37686545,0.0,0.0,0.0
2026-05-10 20:51:07.980,220,-0.005611621,0.017935779,0.37686545,0.0,0.0,0.0
2026-05-10 20:51:07.990,221,-0.005611621,0.017935779,0.37686545,0.0,0.0,0.0
2026-05-10 20:51:08.000,222,-0.005611621,0.017935779,0.37686545,0.0,0.0,0.0
2026-05-10 20:51:08.010,223,-0.005611621,0.017935779,0.37686545,0.0,0.0,0.0
2026-05-10 20:51:08.020,224,-0.005611621,0.017935779,0.37686545,0.0,0.0,0.0
2026-05-10 20:51:08.030,225,-0.005611621,0.017935779,0.37686545,0.0,0.0,0.0
2026-05-10 20:51:08.040,226,-0.005611621,0.017935779,0.37686545,0.0,0.0,0.0
2026-05-10 20:51:08.050,227,-0.005611621,0.017935779,0.37686545,0.0,0.0,0.0
2026-05-10 20:51:08.060,228,-0.005611621,0.017935779,0.37686545,0.0,0.0,0.0
2026-05-10 20:51:08.070,229,-0.005611621,0.017935779,0.37686545,0.0,0.0,0.0
2026-05-10 20:51:08.080,230,-0.005611621,0.017935779,0.37686545,0.0,0.0,0.0
2026-05-10 20:51:08.090,231,-0.005611621,0.017935779,0.37686545,0.0,0.0,0.0
2026-05-10 20:51:08.100,232,-0.005611621,0.017935779,0.37686545,0.0,0.0,0.0
2026-05-10 20:51:08.110,233,-0.005611621,0.017935779,0.37686545,0.0,0.0,0.0
2026-05-10 20:51:08.120,234,-0.005611621,0.017935779,0.37686545,0.0,0.0,0.0
2026-05-10 20:51:08.130,235,-0.005611621,0.017935779,0.37686545,0.0,0.0,0.0
2026-05-10 20:51:08.140,236,-0.005611621,0.017935779,0.37686545,0.0,0.0,0.0
2026-05-10 20:51:08.150,237,-0.005611621,0.017935779,0.37686545,0.0,0.0,0.0
2026-05-10 20:51:08.160,238,-0.005611621,0.017935779,0.37686545,0.0,0.0,0.0
2026-05-10 20:51:08.170,239,-0.005611621,0.017935779,0.37686545,0.0,0.0,0.0
2026-05-10 20:51:08.180,240,-0.005611621,0.017935779,0.37686545,0.0,0.0,0.0
2026-05-10 20:51:08.190,241,-0.005611621,0.017935779,0.37686545,0.0,0.0,0.0
2026-05-10 20:51:08.200,242,-0.005611621,0.017935779,0.37686545,0.0,0.0,0.0
2026-05-10 20:51:08.210,243,-0.005611621,0.017935779,0.37686545,0.0,0.0,0.0
2026-05-10 20:51:08.220,244,-0.005611621,0.017935779,0.37686545,0.0,0.0,0.0
2026-05-10 20:51:08.230,245,-0.005611621,0.017935779,0.37686545,0.0,0.0,0.0
2026-05-10 20:51:08.240,246,-0.005611621,0.017935779,0.37686545,0.0,0.0,0.0
2026-05-10 20:51:08.250,247,-0.005611621,0.017935779,0.37686545,0.0,0.0,0.0
2026-05-10 20:51:08.260,248,-0.005611621,0.017935779,0.37686545,0.0,0.0,0.0
2026-05-10 20:51:08.270,249,-0.005611621,0.017935779,0.37686545,0.0,0.0,0.0
2026-05-10 20:51:08.280,250,-0.005611621,0.017935779,0.37686545,0.0,0.0,0.0
2026-05-10 20:51:08.290,251,-0.005611621,0.017935779,0.37686545,0.0,0.0,0.0
2026-05-10 20:51:08.300,252,-0.005611621,0.017935779,0.37686545,0.0,0.0,0.0
2026-05-10 20:51:08.310,253,-0.005611621,0.017935779,0.37686545,0.0,0.0,0.0
2026-05-10 20:51:08.320,254,-0.005611621,0.017935779,0.37686545,0.0,0.0,0.0
2026-05-10 20:51:08.330,255,-0.005611621,0.017935779,0.37686545,0.0,0.0,0.0
2026-05-10 20:51:08.340,256,-0.005611621,0.017935779,0.37686545,0.0,0.0,0.0
2026-05-10 20:51:08.350,257,-0.005611621,0.017935779,0.37686545,0.0,0.0,0.0
2026-05-10 20:51:08.360,258,-0.005611621,0.017935779,0.37686545,0.0,0.0,0.0
2026-05-10 20:51:08.370,259,-0.005611621,0.017935779,0.37686545,0.0,0.0,0.0
2026-05-10 20:51:08.380,260,-0.005611621,0.017935779,0.37686545,0.0,0.0,0.0
2026-05-10 20:51:08.390,261,-0.005611621,0.017935779,0.37686545,0.0,0.0,0.0
2026-05-10 20:51:08.400,262,-0.005611621,0.017935779,0.37686545,0.0,0.0,0.0
2026-05-10 20:51:08.410,263,-0.005611621,0.017935779,0.37686545,0.0,0.0,0.0
2026-05-10 20:51:08.420,264,-0.005611621,0.017935779,0.37686545,0.0,0.0,0.0
2026-05-10 20:51:08.430,265,-0.005611621,0.017935779,0.37686545,0.0,0.0,0.0
2026-05-10 20:51:08.440,266,-0.005611621,0.017935779,0.37686545,0.0,0.0,0.0
2026-05-10 20:51:08.450,267,-0.005611621,0.017935779,0.37686545,0.0,0.0,0.0
2026-05-10 20:51:08.460,268,-0.005611621,0.017935779,0.37686545,0.0,0.0,0.0
2026-05-10 20:51:08.470,269,-0.005611621,0.017935779,0.37686545,0.0,0.0,0.0
2026-05-10 20:51:08.480,270,-0.005611621,0.017935779,0.37686545,0.0,0.0,0.0
2026-05-10 20:51:08.490,271,-0.005611621,0.017935779,0.37686545,0.0,0.0,0.0
2026-05-10 20:51:08.500,272,-0.005611621,0.017935779,0.37686545,0.0,0.0,0.0
2026-05-10 20:51:08.510,273,-0.005611621,0.017935779,0.37686545,0.0,0.0,0.0
2026-05-10 20:51:08.520,274,-0.005611621,0.017935779,0.37686545,0.0,0.0,0.0
2026-05-10 20:51:08.530,275,-0.005611621,0.017935779,0.37686545,0.0,0.0,0.0
2026-05-10 20:51:08.540,276,-0.005611621,0.017935779,0.37686545,0.0,0.0,0.0
2026-05-10 20:51:08.550,277,-0.005611621,0.017935779,0.37686545,0.0,0.0,0.0
2026-05-10 20:51:08.560,278,-0.005611621,0.017935779,0.37686545,0.0,0.0,0.0
2026-05-10 20:51:08.570,279,-0.005611621,0.017935779,0.37686545,0.0,0.0,0.0
2026-05-10 20:51:08.580,280,-0.005611621,0.017935779,0.37686545,0.0,0.0,0.0
2026-05-10 20:51:08.590,281,-0.005611621,0.017935779,0.37686545,0.0,0.0,0.0
2026-05-10 20:51:08.600,282,-0.005611621,0.017935779,0.37686545,0.0,0.0,0.0
2026-05-10 20:51:08.610,283,-0.005611621,0.017935779,0.37686545,0.0,0.0,0.0
2026-05-10 20:51:08.620,284,-0.005611621,0.017935779,0.37686545,0.0,0.0,0.0
2026-05-10 20:51:08.630,285,-0.005611621,0.017935779,0.37686545,0.0,0.0,0.0
2026-05-10 20:51:08.640,286,-0.005611621,0.017935779,0.37686545,0.0,0.0,0.0
2026-05-10 20:51:08.650,287,-0.005611621,0.017935779,0.37686545,0.0,0.0,0.0
2026-05-10 20:51:08.660,288,-0.005611621,0.017935779,0.37686545,0.0,0.0,0.0
2026-05-10 20:51:08.670,289,-0.005611621,0.017935779,0.37686545,0.0,0.0,0.0
2026-05-10 20:51:08.680,290,-0.005611621,0.017935779,0.37686545,0.0,0.0,0.0
2026-05-10 20:51:08.690,291,-0.005611621,0.017935779,0.37686545,0.0,0.0,0.0
2026-05-10 20:51:08.700,292,-0.005611621,0.017935779,0.37686545,0.0,0.0,0.0
2026-05-10 20:51:08.710,293,-0.005611621,0.017935779,0.37686545,0.0,0.0,0.0
2026-05-10 20:51:08.720,294,-0.005611621,0.017935779,0.37686545,0.0,0.0,0.0
2026-05-10 20:51:08.730,295,-0.005611621,0.017935779,0.37686545,0.0,0.0,0.0
2026-05-10 20:51:08.740,296,-0.005611621,0.017935779,0.37686545,0.0,0.0,0.0
2026-05-10 20:51:08.750,297,-0.005611621,0.017935779,0.37686545,0.0,0.0,0.0
2026-05-10 20:51:08.760,298,-0.005611621,0.017935779,0.37686545,0.0,0.0,0.0
2026-05-10 20:51:08.770,299,-0.005611621,0.017935779,0.37686545,0.0,0.0,0.0
2026-05-10 20:51:08.780,300,-0.005611621,0.017935779,0.37686545,0.0,0.0,0.0
2026-05-10 20:51:08.790,301,-0.005611621,0.017935779,0.37686545,0.0,0.0,0.0
2026-05-10 20:51:08.800,302,-0.005611621,0.017935779,0.37686545,0.0,0.0,0.0
2026-05-10 20:51:08.810,303,-0.005611621,0.017935779,0.37686545,0.0,0.0,0.0
2026-05-10 20:51:08.820,304,-0.005611621,0.017935779,0.37686545,0.0,0.0,0.0
2026-05-10 20:51:08.830,305,-0.005611621,0.017935779,0.37686545,0.0,0.0,0.0
2026-05-10 20:51:08.840,306,-0.005611621,0.017935779,0.37686545,0.0,0.0,0.0
2026-05-10 20:51:08.850,307,-0.005611621,0.017935779,0.37686545,0.0,0.0,0.0
2026-05-10 20:51:08.860,308,-0.005611621,0.017935779,0.37686545,0.0,0.0,0.0
2026-05-10 20:51:08.870,309,-0.005611621,0.017935779,0.37686545,0.0,0.0,0.0
2026-05-10 20:51:08.880,310,-0.005611621,0.017935779,0.37686545,0.0,0.0,0.0
2026-05-10 20:51:08.890,311,-0.005611621,0.017935779,0.37686545,0.0,0.0,0.0
2026-05-10 20:51:08.900,312,-0.005611621,0.017935779,0.37686545,0.0,0.0,0.0
2026-05-10 20:51:08.910,313,-0.005611621,0.017935779,0.37686545,0.0,0.0,0.0
2026-05-10 20:51:08.920,314,-0.005611621,0.017935779,0.37686545,0.0,0.0,0.0
2026-05-10 20:51:08.930,315,-0.005611621,0.017935779,0.37686545,0.0,0.0,0.0
2026-05-10 20:51:08.940,316,-0.005611621,0.017935779,0.37686545,0.0,0.0,0.0
2026-05-10 20:51:08.950,317,-0.005611621,0.017935779,0.37686545,0.0,0.0,0.0
2026-05-10 20:51:08.960,318,-0.005611621,0.017935779,0.37686545,0.0,0.0,0.0
2026-05-10 20:51:08.970,319,-0.005611621,0.017935779,0.37686545,0.0,0.0,0.0
2026-05-10 20:51:08.980,320,-0.005611621,0.017935779,0.37686545,0.0,0.0,0.0
2026-05-10 20:51:08.990,321,-0.005611621,0.017935779,0.37686545,0.0,0.0,0.0
2026-05-10 20:51:09.000,322,-0.005611621,0.017935779,0.37686545,0.0,0.0,0.0
2026-05-10 20:51:09.010,323,-0.005611621,0.017935779,0.37686545,0.0,0.0,0.0
2026-05-10 20:51:09.020,324,-0.005611621,0.017935779,0.37686545,0.0,0.0,0.0
2026-05-10 20:51:09.030,325,-0.005611621,0.017935779,0.37686545,0.0,0.0,0.0
2026-05-10 20:51:09.040,326,-0.005611621,0.017935779,0.37686545,0.0,0.0,0.0
2026-05-10 20:51:09.050,327,-0.005611621,0.017935779,0.37686545,0.0,0.0,0.0
2026-05-10 20:51:09.060,328,-0.005611621,0.017935779,0.37686545,0.0,0.0,0.0
2026-05-10 20:51:09.070,329,-0.005611621,0.017935779,0.37686545,0.0,0.0,0.0
2026-05-10 20:51:09.080,330,-0.005611621,0.017935779,0.37686545,0.0,0.0,0.0
2026-05-10 20:51:09.090,331,-0.005611621,0.017935779,0.37686545,0.0,0.0,0.0
2026-05-10 20:51:09.100,332,-0.005611621,0.017935779,0.37686545,0.0,0.0,0.0
2026-05-10 20:51:09.110,333,-0.005611621,0.017935779,0.37686545,0.0,0.0,0.0
2026-05-10 20:51:09.120,334,-0.005611621,0.017935779,0.37686545,0.0,0.0,0.0
2026-05-10 20:51:09.130,335,-0.005611621,0.017935779,0.37686545,0.0,0.0,0.0
2026-05-10 20:51:09.140,336,-0.005611621,0.017935779,0.37686545,0.0,0.0,0.0
2026-05-10 20:51:09.150,337,-0.005611621,0.017935779,0.37686545,0.0,0.0,0.0
2026-05-10 20:51:09.160,338,-0.005611621,0.017935779,0.37686545,0.0,0.0,0.0
2026-05-10 20:51:09.170,339,-0.005611621,0.017935779,0.37686545,0.0,0.0,0.0
2026-05-10 20:51:09.180,340,-0.005611621,0.017935779,0.37686545,0.0,0.0,0.0
2026-05-10 20:51:09.190,341,-0.005611621,0.017935779,0.37686545,0.0,0.0,0.0
2026-05-10 20:51:09.200,342,-0.005611621,0.017935779,0.37686545,0.0,0.0,0.0
2026-05-10 20:51:09.210,343,-0.005611621,0.017935779,0.37686545,0.0,0.0,0.0
2026-05-10 20:51:09.220,344,-0.005611621,0.017935779,0.37686545,0.0,0.0,0.0
2026-05-10 20:51:09.230,345,-0.005611621,0.017935779,0.37686545,0.0,0.0,0.0
2026-05-10 20:51:09.240,346,-0.005611621,0.017935779,0.37686545,0.0,0.0,0.0
2026-05-10 20:51:09.250,347,-0.005611621,0.017935779,0.37686545,0.0,0.0,0.0
2026-05-10 20:51:09.260,348,-0.005611621,0.017935779,0.37686545,0.0,0.0,0.0
2026-05-10 20:51:09.270,349,-0.005611621,0.017935779,0.37686545,0.0,0.0,0.0
2026-05-10 20:51:09.280,350,-0.005611621,0.017935779,0.37686545,0.0,0.0,0.0
2026-05-10 20:51:09.290,351,-0.005611621,0.017935779,0.37686545,0.0,0.0,0.0
2026-05-10 20:51:09.300,352,-0.005611621,0.017935779,0.37686545,0.0,0.0,0.0
2026-05-10 20:51:09.310,353,-0.005611621,0.017935779,0.37686545,0.0,0.0,0.0
2026-05-10 20:51:09.320,354,-0.005611621,0.017935779,0.37686545,0.0,0.0,0.0
2026-05-10 20:51:09.330,355,-0.005611621,0.017935779,0.37686545,0.0,0.0,0.0
2026-05-10 20:51:09.340,356,-0.005611621,0.017935779,0.37686545,0.0,0.0,0.0
2026-05-10 20:51:09.350,357,-0.005611621,0.017935779,0.37686545,0.0,0.0,0.0
2026-05-10 20:51:09.360,358,-0.005611621,0.017935779,0.37686545,0.0,0.0,0.0
2026-05-10 20:51:09.370,359,-0.005611621,0.017935779,0.37686545,0.0,0.0,0.0
2026-05-10 20:51:09.380,360,-0.005611621,0.017935779,0.37686545,0.0,0.0,0.0
2026-05-10 20:51:09.390,361,-0.005611621,0.017935779,0.37686545,0.0,0.0,0.0
2026-05-10 20:51:09.400,362,-0.005611621,0.017935779,0.37686545,0.0,0.0,0.0
2026-05-10 20:51:09.410,363,-0.005611621,0.017935779,0.37686545,0.0,0.0,0.0
2026-05-10 20:51:09.420,364,-0.005611621,0.017935779,0.37686545,0.0,0.0,0.0
2026-05-10 20:51:09.430,365,-0.005611621,0.017935779,0.37686545,0.0,0.0,0.0
2026-05-10 20:51:09.440,366,-0.005611621,0.017935779,0.37686545,0.0,0.0,0.0
2026-05-10 20:51:09.450,367,-0.005611621,0.017935779,0.37686545,0.0,0.0,0.0
2026-05-10 20:51:09.460,368,-0.005611621,0.017935779,0.37686545,0.0,0.0,0.0
2026-05-10 20:51:09.470,369,-0.005611621,0.017935779,0.37686545,0.0,0.0,0.0
2026-05-10 20:51:09.480,370,-0.005611621,0.017935779,0.37686545,0.0,0.0,0.0
2026-05-10 20:51:09.490,371,-0.005611621,0.017935779,0.37686545,0.0,0.0,0.0
2026-05-10 20:51:09.500,372,-0.005611621,0.017935779,0.37686545,0.0,0.0,0.0
2026-05-10 20:51:09.510,373,-0.005611621,0.017935779,0.37686545,0.0,0.0,0.0
2026-05-10 20:51:09.520,374,-0.005611621,0.017935779,0.37686545,0.0,0.0,0.0
2026-05-10 20:51:09.530,375,-0.005611621,0.017935779,0.37686545,0.0,0.0,0.0
2026-05-10 20:51:09.540,376,-0.005611621,0.017935779,0.37686545,0.0,0.0,0.0
2026-05-10 20:51:09.550,377,-0.005611621,0.017935779,0.37686545,0.0,0.0,0.0
2026-05-10 20:51:09.560,378,-0.005611621,0.017935779,0.37686545,0.0,0.0,0.0
2026-05-10 20:51:09.570,379,-0.005611621,0.017935779,0.37686545,0.0,0.0,0.0
2026-05-10 20:51:09.580,380,-0.005611621,0.017935779,0.37686545,0.0,0.0,0.0
2026-05-10 20:51:09.590,381,-0.005611621,0.017935779,0.37686545,0.0,0.0,0.0
2026-05-10 20:51:09.600,382,-0.005611621,0.017935779,0.37686545,0.0,0.0,0.0
2026-05-10 20:51:09.610,383,-0.005611621,0.017935779,0.37686545,0.0,0.0,0.0
2026-05-10 20:51:09.620,384,-0.005611621,0.017935779,0.37686545,0.0,0.0,0.0
2026-05-10 20:51:09.630,385,-0.005611621,0.017935779,0.37686545,0.0,0.0,0.0
2026-05-10 20:51:09.640,386,-0.005611621,0.017935779,0.37686545,0.0,0.0,0.0
2026-05-10 20:51:09.650,387,-0.005611621,0.017935779,0.37686545,0.0,0.0,0.0
2026-05-10 20:51:09.660,388,-0.005611621,0.017935779,0.37686545,0.0,0.0,0.0
2026-05-10 20:51:09.670,389,-0.005611621,0.017935779,0.37686545,0.0,0.0,0.0
2026-05-10 20:51:09.680,390,-0.005611621,0.017935779,0.37686545,0.0,0.0,0.0
2026-05-10 20:51:09.690,391,-0.005611621,0.017935779,0.37686545,0.0,0.0,0.0
2026-05-10 20:51:09.700,392,-0.005611621,0.017935779,0.37686545,0.0,0.0,0.0
2026-05-10 20:51:09.710,393,-0.005611621,0.017935779,0.37686545,0.0,0.0,0.0
2026-05-10 20:51:09.720,394,-0.005611621,0.017935779,0.37686545,0.0,0.0,0.0
2026-05-10 20:51:09.730,395,-0.005611621,0.017935779,0.37686545,0.0,0.0,0.0
2026-05-10 20:51:09.740,396,-0.005611621,0.017935779,0.37686545,0.0,0.0,0.0
2026-05-10 20:51:09.750,397,-0.005611621,0.017935779,0.37686545,0.0,0.0,0.0
2026-05-10 20:51:09.760,398,-0.005611621,0.017935779,0.37686545,0.0,0.0,0.0
2026-05-10 20:51:09.770,399,-0.005611621,0.017935779,0.37686545,0.0,0.0,0.0
2026-05-10 20:51:09.780,400,-0.005611621,0.017935779,0.37686545,0.0,0.0,0.0
2026-05-10 20:51:09.790,401,-0.005611621,0.017935779,0.37686545,0.0,0.0,0.0
2026-05-10 20:51:09.800,402,-0.005611621,0.017935779,0.37686545,0.0,0.0,0.0
2026-05-10 20:51:09.810,403,-0.005611621,0.017935779,0.37686545,0.0,0.0,0.0
2026-05-10 20:51:09.820,404,-0.005611621,0.017935779,0.37686545,0.0,0.0,0.0
2026-05-10 20:51:09.830,405,-0.005611621,0.017935779,0.37686545,0.0,0.0,0.0
2026-05-10 20:51:09.840,406,-0.005611621,0.017935779,0.37686545,0.0,0.0,0.0
2026-05-10 20:51:09.850,407,-0.005611621,0.017935779,0.37686545,0.0,0.0,0.0
2026-05-10 20:51:09.860,408,-0.005611621,0.017935779,0.37686545,0.0,0.0,0.0
2026-05-10 20:51:09.870,409,-0.005611621,0.017935779,0.37686545,0.0,0.0,0.0
2026-05-10 20:51:09.880,410,-0.005611621,0.017935779,0.37686545,0.0,0.0,0.0
2026-05-10 20:51:09.890,411,-0.005611621,0.017935779,0.37686545,0.0,0.0,0.0
2026-05-10 20:51:09.900,412,-0.005611621,0.017935779,0.37686545,0.0,0.0,0.0
2026-05-10 20:51:09.910,413,-0.005611621,0.017935779,0.37686545,0.0,0.0,0.0
2026-05-10 20:51:09.920,414,-0.005611621,0.017935779,0.37686545,0.0,0.0,0.0
2026-05-10 20:51:09.930,415,-0.005611621,0.017935779,0.37686545,0.0,0.0,0.0
2026-05-10 20:51:09.940,416,-0.005611621,0.017935779,0.37686545,0.0,0.0,0.0
2026-05-10 20:51:09.950,417,-0.005611621,0.017935779,0.37686545,0.0,0.0,0.0
2026-05-10 20:51:09.960,418,-0.005611621,0.017935779,0.37686545,0.0,0.0,0.0
2026-05-10 20:51:09.970,419,-0.005611621,0.017935779,0.37686545,0.0,0.0,0.0
2026-05-10 20:51:09.980,420,-0.005611621,0.017935779,0.37686545,0.0,0.0,0.0
2026-05-10 20:51:09.990,421,-0.005611621,0.017935779,0.37686545,0.0,0.0,0.0
2026-05-10 20:51:10.000,422,-0.005611621,0.017935779,0.37686545,0.0,0.0,0.0
2026-05-10 20:51:10.010,423,-0.005611621,0.017935779,0.37686545,0.0,0.0,0.0
2026-05-10 20:51:10.020,424,-0.005611621,0.017935779,0.37686545,0.0,0.0,0.0
2026-05-10 20:51:10.030,425,-0.005611621,0.017935779,0.37686545,0.0,0.0,0.0
2026-05-10 20:51:10.040,426,-0.005611621,0.017935779,0.37686545,0.0,0.0,0.0
2026-05-10 20:51:10.050,427,-0.005611621,0.017935779,0.37686545,0.0,0.0,0.0
2026-05-10 20:51:10.060,428,-0.005611621,0.017935779,0.37686545,0.0,0.0,0.0
2026-05-10 20:51:10.070,429,-0.005611621,0.017935779,0.37686545,0.0,0.0,0.0
2026-05-10 20:51:10.080,430,-0.005611621,0.017935779,0.37686545,0.0,0.0,0.0
2026-05-10 20:51:10.090,431,-0.005611621,0.017935779,0.37686545,0.0,0.0,0.0
2026-05-10 20:51:10.100,432,-0.005611621,0.017935779,0.37686545,0.0,0.0,0.0
2026-05-10 20:51:10.110,433,-0.005611621,0.017935779,0.37686545,0.0,0.0,0.0
2026-05-10 20:51:10.120,434,-0.005611621,0.017935779,0.37686545,0.0,0.0,0.0
2026-05-10 20:51:10.130,435,-0.005611621,0.017935779,0.37686545,0.0,0.0,0.0
2026-05-10 20:51:10.140,436,-0.005611621,0.017935779,0.37686545,0.0,0.0,0.0
2026-05-10 20:51:10.150,437,-0.005611621,0.017935779,0.37686545,0.0,0.0,0.0
2026-05-10 20:51:10.160,438,-0.005611621,0.017935779,0.37686545,0.0,0.0,0.0
2026-05-10 20:51:10.170,439,-0.005611621,0.017935779,0.37686545,0.0,0.0,0.0
2026-05-10 20:51:10.180,440,-0.005611621,0.017935779,0.37686545,0.0,0.0,0.0
2026-05-10 20:51:10.190,441,-0.005611621,0.017935779,0.37686545,0.0,0.0,0.0
2026-05-10 20:51:10.200,442,-0.005611621,0.017935779,0.37686545,0.0,0.0,0.0
2026-05-10 20:51:10.210,443,-0.005611621,0.017935779,0.37686545,0.0,0.0,0.0
2026-05-10 20:51:10.220,444,-0.005611621,0.017935779,0.37686545,0.0,0.0,0.0
2026-05-10 20:51:10.230,445,-0.005611621,0.017935779,0.37686545,0.0,0.0,0.0
2026-05-10 20:51:10.240,446,-0.005611621,0.017935779,0.37686545,0.0,0.0,0.0
2026-05-10 20:51:10.250,447,-0.005611621,0.017935779,0.37686545,0.0,0.0,0.0
2026-05-10 20:51:10.260,448,-0.005611621,0.017935779,0.37686545,0.0,0.0,0.0
2026-05-10 20:51:10.270,449,-0.005611621,0.017935779,0.37686545,0.0,0.0,0.0
2026-05-10 20:51:10.280,450,-0.005611621,0.017935779,0.37686545,0.0,0.0,0.0
2026-05-10 20:51:10.290,451,-0.005611621,0.017935779,0.37686545,0.0,0.0,0.0
2026-05-10 20:51:10.300,452,-0.005611621,0.017935779,0.37686545,0.0,0.0,0.0
2026-05-10 20:51:10.310,453,-0.005611621,0.017935779,0.37686545,0.0,0.0,0.0
2026-05-10 20:51:10.320,454,-0.005611621,0.017935779,0.37686545,0.0,0.0,0.0
2026-05-10 20:51:10.330,455,-0.005611621,0.017935779,0.37686545,0.0,0.0,0.0
2026-05-10 20:51:10.340,456,-0.005611621,0.017935779,0.37686545,0.0,0.0,0.0
2026-05-10 20:51:10.350,457,-0.005611621,0.017935779,0.37686545,0.0,0.0,0.0
2026-05-10 20:51:10.360,458,-0.005611621,0.017935779,0.37686545,0.0,0.0,0.0
2026-05-10 20:51:10.370,459,-0.005611621,0.017935779,0.37686545,0.0,0.0,0.0
2026-05-10 20:51:10.380,460,-0.005611621,0.017935779,0.37686545,0.0,0.0,0.0
2026-05-10 20:51:10.390,461,-0.005611621,0.017935779,0.37686545,0.0,0.0,0.0
2026-05-10 20:51:10.400,462,-0.005611621,0.017935779,0.37686545,0.0,0.0,0.0
2026-05-10 20:51:10.410,463,-0.005611621,0.017935779,0.37686545,0.0,0.0,0.0
2026-05-10 20:51:10.420,464,-0.005611621,0.017935779,0.37686545,0.0,0.0,0.0
2026-05-10 20:51:10.430,465,-0.005611621,0.017935779,0.37686545,0.0,0.0,0.0
2026-05-10 20:51:10.440,466,-0.005611621,0.017935779,0.37686545,0.0,0.0,0.0
2026-05-10 20:51:10.450,467,-0.005611621,0.017935779,0.37686545,0.0,0.0,0.0
2026-05-10 20:51:10.460,468,-0.005611621,0.017935779,0.37686545,0.0,0.0,0.0
2026-05-10 20:51:10.470,469,-0.005611621,0.017935779,0.37686545,0.0,0.0,0.0
2026-05-10 20:51:10.480,470,-0.005611621,0.017935779,0.37686545,0.0,0.0,0.0
2026-05-10 20:51:10.490,471,-0.005611621,0.017935779,0.37686545,0.0,0.0,0.0
2026-05-10 20:51:10.500,472,-0.005611621,0.017935779,0.37686545,0.0,0.0,0.0
2026-05-10 20:51:10.510,473,-0.005611621,0.017935779,0.37686545,0.0,0.0,0.0
2026-05-10 20:51:10.520,474,-0.005611621,0.017935779,0.37686545,0.0,0.0,0.0
2026-05-10 20:51:10.530,475,-0.005611621,0.017935779,0.37686545,0.0,0.0,0.0
2026-05-10 20:51:10.540,476,-0.005611621,0.017935779,0.37686545,0.0,0.0,0.0
2026-05-10 20:51:10.550,477,-0.005611621,0.017935779,0.37686545,0.0,0.0,0.0
2026-05-10 20:51:10.560,478,-0.005611621,0.017935779,0.37686545,0.0,0.0,0.0
2026-05-10 20:51:10.570,479,-0.005611621,0.017935779,0.37686545,0.0,0.0,0.0
2026-05-10 20:51:10.580,480,-0.005611621,0.017935779,0.37686545,0.0,0.0,0.0
2026-05-10 20:51:10.590,481,-0.005611621,0.017935779,0.37686545,0.0,0.0,0.0
2026-05-10 20:51:10.600,482,-0.005611621,0.017935779,0.37686545,0.0,0.0,0.0
2026-05-10 20:51:10.610,483,-0.005611621,0.017935779,0.37686545,0.0,0.0,0.0
2026-05-10 20:51:10.620,484,-0.005611621,0.017935779,0.37686545,0.0,0.0,0.0
2026-05-10 20:51:10.630,485,-0.005611621,0.017935779,0.37686545,0.0,0.0,0.0
2026-05-10 20:51:10.640,486,-0.005611621,0.017935779,0.37686545,0.0,0.0,0.0
2026-05-10 20:51:10.650,487,-0.005611621,0.017935779,0.37686545,0.0,0.0,0.0
2026-05-10 20:51:10.660,488,-0.005611621,0.017935779,0.37686545,0.0,0.0,0.0
2026-05-10 20:51:10.670,489,-0.005611621,0.017935779,0.37686545,0.0,0.0,0.0
2026-05-10 20:51:10.680,490,-0.005611621,0.017935779,0.37686545,0.0,0.0,0.0
2026-05-10 20:51:10.690,491,-0.005611621,0.017935779,0.37686545,0.0,0.0,0.0
2026-05-10 20:51:10.700,492,-0.005611621,0.017935779,0.37686545,0.0,0.0,0.0
2026-05-10 20:51:10.710,493,-0.005611621,0.017935779,0.37686545,0.0,0.0,0.0
2026-05-10 20:51:10.720,494,-0.005611621,0.017935779,0.37686545,0.0,0.0,0.0
2026-05-10 20:51:10.730,495,-0.005611621,0.017935779,0.37686545,0.0,0.0,0.0
2026-05-10 20:51:10.740,496,-0.005611621,0.017935779,0.37686545,0.0,0.0,0.0
2026-05-10 20:51:10.750,497,-0.005611621,0.017935779,0.37686545,0.0,0.0,0.0
2026-05-10 20:51:10.760,498,-0.005611621,0.017935779,0.37686545,0.0,0.0,0.0
2026-05-10 20:51:10.770,499,-0.005611621,0.017935779,0.37686545,0.0,0.0,0.0
2026-05-10 20:51:10.780,500,-0.005611621,0.017935779,0.37686545,0.0,0.0,0.0
2026-05-10 20:51:10.790,501,-0.005611621,0.017935779,0.37686545,0.0,0.0,0.0
2026-05-10 20:51:10.800,502,-0.005611621,0.017935779,0.37686545,0.0,0.0,0.0
2026-05-10 20:51:10.810,503,-0.005611621,0.017935779,0.37686545,0.0,0.0,0.0
2026-05-10 20:51:10.820,504,-0.005611621,0.017935779,0.37686545,0.0,0.0,0.0
2026-05-10 20:51:10.830,505,-0.005611621,0.017935779,0.37686545,0.0,0.0,0.0
2026-05-10 20:51:10.840,506,-0.005611621,0.017935779,0.37686545,0.0,0.0,0.0
2026-05-10 20:51:10.850,507,-0.005611621,0.017935779,0.37686545,0.0,0.0,0.0
2026-05-10 20:51:10.860,508,-0.005611621,0.017935779,0.37686545,0.0,0.0,0.0
2026-05-10 20:51:10.870,509,-0.005611621,0.017935779,0.37686545,0.0,0.0,0.0
2026-05-10 20:51:10.880,510,-0.005611621,0.017935779,0.37686545,0.0,0.0,0.0
2026-05-10 20:51:10.890,511,-0.005611621,0.017935779,0.37686545,0.0,0.0,0.0
2026-05-10 20:51:10.900,512,-0.005611621,0.017935779,0.37686545,0.0,0.0,0.0
2026-05-10 20:51:10.910,513,-0.005611621,0.017935779,0.37686545,0.0,0.0,0.0
2026-05-10 20:51:10.920,514,-0.005611621,0.017935779,0.37686545,0.0,0.0,0.0
2026-05-10 20:51:10.930,515,-0.005611621,0.017935779,0.37686545,0.0,0.0,0.0
2026-05-10 20:51:10.940,516,-0.005611621,0.017935779,0.37686545,0.0,0.0,0.0
2026-05-10 20:51:10.950,517,-0.005611621,0.017935779,0.37686545,0.0,0.0,0.0
2026-05-10 20:51:10.960,518,-0.005611621,0.017935779,0.37686545,0.0,0.0,0.0
2026-05-10 20:51:10.970,519,-0.005611621,0.017935779,0.37686545,0.0,0.0,0.0
2026-05-10 20:51:10.980,520,-0.005611621,0.017935779,0.37686545,0.0,0.0,0.0
2026-05-10 20:51:10.990,521,-0.005611621,0.017935779,0.37686545,0.0,0.0,0.0
2026-05-10 20:51:11.000,522,-0.005611621,0.017935779,0.37686545,0.0,0.0,0.0
2026-05-10 20:51:11.010,523,-0.005611621,0.017935779,0.37686545,0.0,0.0,0.0
2026-05-10 20:51:11.020,524,-0.005611621,0.017935779,0.37686545,0.0,0.0,0.0
2026-05-10 20:51:11.030,525,-0.005611621,0.017935779,0.37686545,0.0,0.0,0.0
2026-05-10 20:51:11.040,526,-0.005611621,0.017935779,0.37686545,0.0,0.0,0.0
2026-05-10 20:51:11.050,527,-0.005611621,0.017935779,0.37686545,0.0,0.0,0.0
2026-05-10 20:51:11.060,528,-0.005611621,0.017935779,0.37686545,0.0,0.0,0.0
2026-05-10 20:51:11.070,529,-0.005611621,0.017935779,0.37686545,0.0,0.0,0.0
2026-05-10 20:51:11.080,530,-0.005611621,0.017935779,0.37686545,0.0,0.0,0.0
2026-05-10 20:51:11.090,531,-0.005611621,0.017935779,0.37686545,0.0,0.0,0.0
2026-05-10 20:51:11.100,532,-0.005611621,0.017935779,0.37686545,0.0,0.0,0.0
2026-05-10 20:51:11.110,533,-0.005611621,0.017935779,0.37686545,0.0,0.0,0.0
2026-05-10 20:51:11.120,534,-0.005611621,0.017935779,0.37686545,0.0,0.0,0.0
2026-05-10 20:51:11.130,535,-0.005611621,0.017935779,0.37686545,0.0,0.0,0.0
2026-05-10 20:51:11.140,536,-0.005611621,0.017935779,0.37686545,0.0,0.0,0.0
2026-05-10 20:51:11.150,537,-0.005611621,0.017935779,0.37686545,0.0,0.0,0.0
2026-05-10 20:51:11.160,538,-0.005611621,0.017935779,0.37686545,0.0,0.0,0.0
2026-05-10 20:51:11.170,539,-0.005611621,0.017935779,0.37686545,0.0,0.0,0.0
2026-05-10 20:51:11.180,540,-0.005611621,0.017935779,0.37686545,0.0,0.0,0.0
2026-05-10 20:51:11.190,541,-0.005611621,0.017935779,0.37686545,0.0,0.0,0.0
2026-05-10 20:51:11.200,542,-0.005611621,0.017935779,0.37686545,0.0,0.0,0.0
2026-05-10 20:51:11.210,543,-0.005611621,0.017935779,0.37686545,0.0,0.0,0.0
2026-05-10 20:51:11.220,544,-0.005611621,0.017935779,0.37686545,0.0,0.0,0.0
2026-05-10 20:51:11.230,545,-0.005611621,0.017935779,0.37686545,0.0,0.0,0.0
2026-05-10 20:51:11.240,546,-0.005611621,0.017935779,0.37686545,0.0,0.0,0.0
2026-05-10 20:51:11.250,547,-0.005611621,0.017935779,0.37686545,0.0,0.0,0.0
2026-05-10 20:51:11.260,548,-0.005611621,0.017935779,0.37686545,0.0,0.0,0.0
2026-05-10 20:51:11.270,549,-0.005611621,0.017935779,0.37686545,0.0,0.0,0.0
2026-05-10 20:51:11.280,550,-0.005611621,0.017935779,0.37686545,0.0,0.0,0.0
2026-05-10 20:51:11.290,551,-0.005611621,0.017935779,0.37686545,0.0,0.0,0.0
2026-05-10 20:51:11.300,552,-0.005611621,0.017935779,0.37686545,0.0,0.0,0.0
2026-05-10 20:51:11.310,553,-0.005611621,0.017935779,0.37686545,0.0,0.0,0.0
2026-05-10 20:51:11.320,554,-0.005611621,0.017935779,0.37686545,0.0,0.0,0.0
2026-05-10 20:51:11.330,555,-0.005611621,0.017935779,0.37686545,0.0,0.0,0.0
2026-05-10 20:51:11.340,556,-0.005611621,0.017935779,0.37686545,0.0,0.0,0.0
2026-05-10 20:51:11.350,557,-0.005611621,0.017935779,0.37686545,0.0,0.0,0.0
2026-05-10 20:51:11.360,558,-0.005611621,0.017935779,0.37686545,0.0,0.0,0.0
2026-05-10 20:51:11.370,559,-0.005611621,0.017935779,0.37686545,0.0,0.0,0.0
2026-05-10 20:51:11.380,560,-0.005611621,0.017935779,0.37686545,0.0,0.0,0.0
2026-05-10 20:51:11.390,561,-0.005611621,0.017935779,0.37686545,0.0,0.0,0.0
2026-05-10 20:51:11.400,562,-0.005611621,0.017935779,0.37686545,0.0,0.0,0.0
2026-05-10 20:51:11.410,563,-0.005611621,0.017935779,0.37686545,0.0,0.0,0.0
2026-05-10 20:51:11.420,564,-0.005611621,0.017935779,0.37686545,0.0,0.0,0.0
2026-05-10 20:51:11.430,565,-0.005611621,0.017935779,0.37686545,0.0,0.0,0.0
2026-05-10 20:51:11.440,566,-0.005611621,0.017935779,0.37686545,0.0,0.0,0.0
2026-05-10 20:51:11.450,567,-0.005611621,0.017935779,0.37686545,0.0,0.0,0.0
2026-05-10 20:51:11.460,568,-0.005611621,0.017935779,0.37686545,0.0,0.0,0.0
2026-05-10 20:51:11.470,569,-0.005611621,0.017935779,0.37686545,0.0,0.0,0.0
2026-05-10 20:51:11.480,570,-0.005611621,0.017935779,0.37686545,0.0,0.0,0.0
2026-05-10 20:51:11.490,571,-0.005611621,0.017935779,0.37686545,0.0,0.0,0.0
2026-05-10 20:51:11.500,572,-0.005611621,0.017935779,0.37686545,0.0,0.0,0.0
2026-05-10 20:51:11.510,573,-0.005611621,0.017935779,0.37686545,0.0,0.0,0.0
2026-05-10 20:51:11.520,574,-0.005611621,0.017935779,0.37686545,0.0,0.0,0.0
2026-05-10 20:51:11.530,575,-0.005611621,0.017935779,0.37686545,0.0,0.0,0.0
2026-05-10 20:51:11.540,576,-0.005611621,0.017935779,0.37686545,0.0,0.0,0.0
2026-05-10 20:51:11.550,577,-0.005611621,0.017935779,0.37686545,0.0,0.0,0.0
2026-05-10 20:51:11.560,578,-0.005611621,0.017935779,0.37686545,0.0,0.0,0.0
2026-05-10 20:51:11.570,579,-0.005611621,0.017935779,0.37686545,0.0,0.0,0.0
2026-05-10 20:51:11.580,580,-0.005611621,0.017935779,0.37686545,0.0,0.0,0.0
2026-05-10 20:51:11.590,581,-0.005611621,0.017935779,0.37686545,0.0,0.0,0.0
2026-05-10 20:51:11.600,582,-0.005611621,0.017935779,0.37686545,0.0,0.0,0.0
2026-05-10 20:51:11.610,583,-0.005611621,0.017935779,0.37686545,0.0,0.0,0.0
2026-05-10 20:51:11.620,584,-0.005611621,0.017935779,0.37686545,0.0,0.0,0.0
2026-05-10 20:51:11.630,585,-0.005611621,0.017935779,0.37686545,0.0,0.0,0.0
2026-05-10 20:51:11.640,586,-0.005611621,0.017935779,0.37686545,0.0,0.0,0.0
2026-05-10 20:51:11.650,587,-0.005611621,0.017935779,0.37686545,0.0,0.0,0.0
2026-05-10 20:51:11.660,588,-0.005611621,0.017935779,0.37686545,0.0,0.0,0.0
2026-05-10 20:51:11.670,589,-0.005611621,0.017935779,0.37686545,0.0,0.0,0.0
2026-05-10 20:51:11.680,590,-0.005611621,0.017935779,0.37686545,0.0,0.0,0.0
2026-05-10 20:51:11.690,591,-0.005611621,0.017935779,0.37686545,0.0,0.0,0.0
2026-05-10 20:51:11.700,592,-0.005611621,0.017935779,0.37686545,0.0,0.0,0.0
2026-05-10 20:51:11.710,593,-0.005611621,0.017935779,0.37686545,0.0,0.0,0.0
2026-05-10 20:51:11.720,594,-0.005611621,0.017935779,0.37686545,0.0,0.0,0.0
2026-05-10 20:51:11.730,595,-0.005611621,0.017935779,0.37686545,0.0,0.0,0.0
2026-05-10 20:51:11.740,596,-0.005611621,0.017935779,0.37686545,0.0,0.0,0.0
2026-05-10 20:51:11.750,597,-0.005611621,0.017935779,0.37686545,0.0,0.0,0.0
2026-05-10 20:51:11.760,598,-0.005611621,0.017935779,0.37686545,0.0,0.0,0.0
2026-05-10 20:51:11.770,599,-0.005611621,0.017935779,0.37686545,0.0,0.0,0.0
2026-05-10 20:51:11.780,600,-0.005611621,0.017935779,0.37686545,0.0,0.0,0.0
2026-05-10 20:51:11.790,601,-0.005611621,0.017935779,0.37686545,0.0,0.0,0.0
2026-05-10 20:51:11.800,602,-0.005611621,0.017935779,0.37686545,0.0,0.0,0.0
2026-05-10 20:51:11.810,603,-0.005611621,0.017935779,0.37686545,0.0,0.0,0.0
2026-05-10 20:51:11.820,604,-0.005611621,0.017935779,0.37686545,0.0,0.0,0.0
2026-05-10 20:51:11.830,605,-0.005611621,0.017935779,0.37686545,0.0,0.0,0.0
2026-05-10 20:51:11.840,606,-0.005611621,0.017935779,0.37686545,0.0,0.0,0.0
2026-05-10 20:51:11.850,607,-0.005611621,0.017935779,0.37686545,0.0,0.0,0.0
2026-05-10 20:51:11.860,608,-0.005611621,0.017935779,0.37686545,0.0,0.0,0.0
2026-05-10 20:51:11.870,609,-0.005611621,0.017935779,0.37686545,0.0,0.0,0.0
2026-05-10 20:51:11.880,610,-0.005611621,0.017935779,0.37686545,0.0,0.0,0.0
2026-05-10 20:51:11.890,611,-0.005611621,0.017935779,0.37686545,0.0,0.0,0.0
2026-05-10 20:51:11.900,612,-0.005611621,0.017935779,0.37686545,0.0,0.0,0.0
2026-05-10 20:51:11.910,613,-0.005611621,0.017935779,0.37686545,0.0,0.0,0.0
2026-05-10 20:51:11.920,614,-0.005611621,0.017935779,0.37686545,0.0,0.0,0.0
2026-05-10 20:51:11.930,615,-0.005611621,0.017935779,0.37686545,0.0,0.0,0.0
2026-05-10 20:51:11.940,616,-0.005611621,0.017935779,0.37686545,0.0,0.0,0.0
2026-05-10 20:51:11.950,617,-0.005611621,0.017935779,0.37686545,0.0,0.0,0.0
2026-05-10 20:51:11.960,618,-0.005611621,0.017935779,0.37686545,0.0,0.0,0.0
2026-05-10 20:51:11.970,619,-0.005611621,0.017935779,0.37686545,0.0,0.0,0.0
2026-05-10 20:51:11.980,620,-0.005611621,0.017935779,0.37686545,0.0,0.0,0.0
2026-05-10 20:51:11.990,621,-0.005611621,0.017935779,0.37686545,0.0,0.0,0.0
2026-05-10 20:51:12.000,622,-0.005611621,0.017935779,0.37686545,0.0,0.0,0.0
2026-05-10 20:51:12.010,623,-0.005611621,0.017935779,0.37686545,0.0,0.0,0.0
2026-05-10 20:51:12.020,624,-0.005611621,0.017935779,0.37686545,0.0,0.0,0.0
2026-05-10 20:51:12.030,625,-0.005611621,0.017935779,0.37686545,0.0,0.0,0.0
2026-05-10 20:51:12.040,626,-0.005611621,0.017935779,0.37686545,0.0,0.0,0.0
2026-05-10 20:51:12.050,627,-0.005611621,0.017935779,0.37686545,0.0,0.0,0.0
2026-05-10 20:51:12.060,628,-0.005611621,0.017935779,0.37686545,0.0,0.0,0.0
2026-05-10 20:51:12.070,629,-0.005611621,0.017935779,0.37686545,0.0,0.0,0.0
2026-05-10 20:51:12.080,630,-0.005611621,0.017935779,0.37686545,0.0,0.0,0.0
2026-05-10 20:51:12.090,631,-0.005611621,0.017935779,0.37686545,0.0,0.0,0.0
2026-05-10 20:51:12.100,632,-0.005611621,0.017935779,0.37686545,0.0,0.0,0.0
2026-05-10 20:51:12.110,633,-0.31462537525,0.49493121975,0.4091246,0.0,0.0,0.0
2026-05-10 20:51:12.120,634,-0.41762996,0.6539297,0.41987764999999994,0.0,0.0,0.0
2026-05-10 20:51:12.130,635,-0.41762996,0.6539297,0.41987764999999994,0.0,0.0,0.0
2026-05-10 20:51:12.140,636,-0.41762996,0.6539297,0.41987764999999994,0.0,0.0,0.0
2026-05-10 20:51:12.150,637,-0.41762996,0.6539297,0.41987764999999994,0.0,0.0,0.0
2026-05-10 20:51:12.160,638,-0.41762996,0.6539297,0.41987764999999994,0.0,0.0,0.0
2026-05-10 20:51:12.170,639,-0.41762996,0.6539297,0.41987764999999994,0.0,0.0,0.0
2026-05-10 20:51:12.180,640,-0.41762996,0.6539297,0.41987764999999994,0.0,0.0,0.0
2026-05-10 20:51:12.190,641,-0.41762996,0.6539297,0.41987764999999994,0.0,0.0,0.0
2026-05-10 20:51:12.200,642,-0.41762996,0.6539297,0.41987764999999994,0.0,0.0,0.0
2026-05-10 20:51:12.210,643,-0.41762996,0.6539297,0.41987765,0.0,0.0,0.0
2026-05-10 20:51:12.220,644,-0.41762996,0.6539297,0.41987764999999994,0.0,0.0,0.0
2026-05-10 20:51:12.230,645,-0.41762996,0.6539297,0.41987765,0.0,0.0,0.0
2026-05-10 20:51:12.240,646,-0.41762996,0.6539297,0.41987764999999994,0.0,0.0,0.0
2026-05-10 20:51:12.250,647,-0.41762996,0.6539297,0.41987764999999994,0.0,0.0,0.0
2026-05-10 20:51:12.260,648,-0.41762996,0.6539297,0.41987764999999994,0.0,0.0,0.0
2026-05-10 20:51:12.270,649,-0.41762996,0.6539297,0.41987764999999994,0.0,0.0,0.0
2026-05-10 20:51:12.280,650,-0.41762996,0.6539297,0.41987764999999994,0.0,0.0,0.0
2026-05-10 20:51:12.290,651,-0.41762996,0.6539297,0.41987764999999994,0.0,0.0,0.0
2026-05-10 20:51:12.300,652,-0.41762996,0.6539297,0.41987764999999994,0.0,0.0,0.0
2026-05-10 20:51:12.310,653,-0.41762996,0.6539297,0.41987765,0.0,0.0,0.0
2026-05-10 20:51:12.320,654,-0.41762996,0.6539297,0.41987764999999994,0.0,0.0,0.0
2026-05-10 20:51:12.330,655,-0.41762996,0.6539297,0.41987764999999994,0.0,0.0,0.0
2026-05-10 20:51:12.340,656,-0.41762996,0.6539297,0.41987764999999994,0.0,0.0,0.0
2026-05-10 20:51:12.350,657,-0.41762996,0.6539297,0.41987764999999994,0.0,0.0,0.0
2026-05-10 20:51:12.360,658,-0.41762996,0.6539297,0.41987764999999994,0.0,0.0,0.0
2026-05-10 20:51:12.370,659,-0.41762996,0.6539297,0.41987765,0.0,0.0,0.0
2026-05-10 20:51:12.380,660,-0.41762996,0.6539297,0.41987765,0.0,0.0,0.0
2026-05-10 20:51:12.390,661,-0.41762996,0.6539297,0.41987765,0.0,0.0,0.0
2026-05-10 20:51:12.400,662,-0.41762996,0.6539297,0.41987764999999994,0.0,0.0,0.0
2026-05-10 20:51:12.410,663,-0.41762996,0.6539297,0.41987764999999994,0.0,0.0,0.0
2026-05-10 20:51:12.420,664,-0.41762996,0.6539297,0.41987764999999994,0.0,0.0,0.0
2026-05-10 20:51:12.430,665,-0.41762996,0.6539297,0.41987764999999994,0.0,0.0,0.0
2026-05-10 20:51:12.440,666,-0.41762996,0.6539297,0.41987764999999994,0.0,0.0,0.0
2026-05-10 20:51:12.450,667,-0.41762996,0.6539297,0.41987764999999994,0.0,0.0,0.0
2026-05-10 20:51:12.460,668,-0.41762996,0.6539297,0.41987764999999994,0.0,0.0,0.0
2026-05-10 20:51:12.470,669,-0.41762996,0.6539297,0.41987764999999994,0.0,0.0,0.0
2026-05-10 20:51:12.480,670,-0.41762996,0.6539297,0.41987764999999994,0.0,0.0,0.0
2026-05-10 20:51:12.490,671,-0.41762996,0.6539297,0.41987764999999994,0.0,0.0,0.0
2026-05-10 20:51:12.500,672,-0.41762996,0.6539297,0.41987764999999994,0.0,0.0,0.0
2026-05-10 20:51:12.510,673,-0.41762996,0.6539297,0.41987764999999994,0.0,0.0,0.0
2026-05-10 20:51:12.520,674,-0.41762996,0.6539297,0.41987764999999994,0.0,0.0,0.0
2026-05-10 20:51:12.530,675,-0.41762996,0.6539297,0.41987764999999994,0.0,0.0,0.0
2026-05-10 20:51:12.540,676,-0.41762996,0.6539297,0.41987765,0.0,0.0,0.0
2026-05-10 20:51:12.550,677,-0.41762996,0.6539297,0.41987764999999994,0.0,0.0,0.0
2026-05-10 20:51:12.560,678,-0.41762996,0.6539297,0.41987764999999994,0.0,0.0,0.0
2026-05-10 20:51:12.570,679,-0.41762996,0.6539297,0.41987764999999994,0.0,0.0,0.0
2026-05-10 20:51:12.580,680,-0.41762996,0.6539297,0.41987764999999994,0.0,0.0,0.0
2026-05-10 20:51:12.590,681,-0.41762996,0.6539297,0.41987764999999994,0.0,0.0,0.0
2026-05-10 20:51:12.600,682,-0.41762996,0.6539297,0.41987764999999994,0.0,0.0,0.0
2026-05-10 20:51:12.610,683,-0.41762996,0.6539297,0.41987764999999994,0.0,0.0,0.0
2026-05-10 20:51:12.620,684,-0.41762996,0.6539297,0.41987765,0.0,0.0,0.0
2026-05-10 20:51:12.630,685,-0.41762996,0.6539297,0.41987764999999994,0.0,0.0,0.0
2026-05-10 20:51:12.640,686,-0.41762996,0.6539297,0.41987764999999994,0.0,0.0,0.0
2026-05-10 20:51:12.650,687,-0.41762996,0.6539297,0.41987764999999994,0.0,0.0,0.0
2026-05-10 20:51:12.660,688,-0.41762996,0.6539297,0.41987765,0.0,0.0,0.0
2026-05-10 20:51:12.670,689,-0.41762996,0.6539297,0.41987764999999994,0.0,0.0,0.0
2026-05-10 20:51:12.680,690,-0.41762996,0.6539297,0.41987765,0.0,0.0,0.0
2026-05-10 20:51:12.690,691,-0.41762996,0.6539297,0.41987764999999994,0.0,0.0,0.0
2026-05-10 20:51:12.700,692,-0.41762996,0.6539297,0.41987764999999994,0.0,0.0,0.0
2026-05-10 20:51:12.710,693,-0.41762996,0.6539297,0.41987764999999994,0.0,0.0,0.0
2026-05-10 20:51:12.720,694,-0.41762996,0.6539297,0.41987765,0.0,0.0,0.0
2026-05-10 20:51:12.730,695,-0.41762996,0.6539297,0.41987764999999994,0.0,0.0,0.0
2026-05-10 20:51:12.740,696,-0.41762996,0.6539297,0.41987764999999994,0.0,0.0,0.0
2026-05-10 20:51:12.750,697,-0.41762996,0.6539297,0.41987765,0.0,0.0,0.0
2026-05-10 20:51:12.760,698,-0.41762996,0.6539297,0.41987764999999994,0.0,0.0,0.0
2026-05-10 20:51:12.770,699,-0.41762996,0.6539297,0.41987764999999994,0.0,0.0,0.0
2026-05-10 20:51:12.780,700,-0.41762996,0.6539297,0.41987764999999994,0.0,0.0,0.0
2026-05-10 20:51:12.790,701,-0.41762996,0.6539297,0.41987765,0.0,0.0,0.0
2026-05-10 20:51:12.800,702,-0.41762996,0.6539297,0.41987764999999994,0.0,0.0,0.0
2026-05-10 20:51:12.810,703,-0.41762996,0.6539297,0.41987764999999994,0.0,0.0,0.0
2026-05-10 20:51:12.820,704,-0.41762996,0.6539297,0.41987764999999994,0.0,0.0,0.0
2026-05-10 20:51:12.830,705,-0.41762996,0.6539297,0.41987765,0.0,0.0,0.0
2026-05-10 20:51:12.840,706,-0.41762996,0.6539297,0.41987765,0.0,0.0,0.0
2026-05-10 20:51:12.850,707,-0.41762996,0.6539297,0.41987764999999994,0.0,0.0,0.0
2026-05-10 20:51:12.860,708,-0.41762996,0.6539297,0.41987764999999994,0.0,0.0,0.0
2026-05-10 20:51:12.870,709,-0.41762996,0.6539297,0.41987764999999994,0.0,0.0,0.0
2026-05-10 20:51:12.880,710,-0.41762996,0.6539297,0.41987765,0.0,0.0,0.0
2026-05-10 20:51:12.890,711,-0.41762996,0.6539297,0.41987764999999994,0.0,0.0,0.0
2026-05-10 20:51:12.900,712,-0.41762996,0.6539297,0.41987764999999994,0.0,0.0,0.0
2026-05-10 20:51:12.910,713,-0.41762996,0.6539297,0.41987764999999994,0.0,0.0,0.0
2026-05-10 20:51:12.920,714,-0.41762996,0.6539297,0.41987764999999994,0.0,0.0,0.0
2026-05-10 20:51:12.930,715,-0.41762996,0.6539297,0.41987764999999994,0.0,0.0,0.0
2026-05-10 20:51:12.940,716,-0.41762996,0.6539297,0.41987764999999994,0.0,0.0,0.0
2026-05-10 20:51:12.950,717,-0.41762996,0.6539297,0.41987764999999994,0.0,0.0,0.0
2026-05-10 20:51:12.960,718,-0.41762996,0.6539297,0.41987764999999994,0.0,0.0,0.0
2026-05-10 20:51:12.970,719,-0.41762996,0.6539297,0.41987765,0.0,0.0,0.0
2026-05-10 20:51:12.980,720,-0.41762996,0.6539297,0.41987764999999994,0.0,0.0,0.0
2026-05-10 20:51:12.990,721,-0.41762996,0.6539297,0.41987764999999994,0.0,0.0,0.0
2026-05-10 20:51:13.000,722,-0.41762996,0.6539297,0.41987764999999994,0.0,0.0,0.0
2026-05-10 20:51:13.010,723,-0.41762996,0.6539297,0.41987764999999994,0.0,0.0,0.0
2026-05-10 20:51:13.020,724,-0.41762996,0.6539297,0.41987764999999994,0.0,0.0,0.0
2026-05-10 20:51:13.030,725,-0.41762996,0.6539297,0.41987764999999994,0.0,0.0,0.0
2026-05-10 20:51:13.040,726,-0.41762996,0.6539297,0.41987764999999994,0.0,0.0,0.0
2026-05-10 20:51:13.050,727,-0.41762996,0.6539297,0.41987764999999994,0.0,0.0,0.0
2026-05-10 20:51:13.060,728,-0.41762996,0.6539297,0.41987764999999994,0.0,0.0,0.0
2026-05-10 20:51:13.070,729,-0.41762996,0.6539297,0.41987764999999994,0.0,0.0,0.0
2026-05-10 20:51:13.080,730,-0.41762996,0.6539297,0.41987764999999994,0.0,0.0,0.0
2026-05-10 20:51:13.090,731,-0.41762996,0.6539297,0.41987764999999994,0.0,0.0,0.0
2026-05-10 20:51:13.100,732,-0.41762996,0.6539297,0.41987764999999994,0.0,0.0,0.0
2026-05-10 20:51:13.110,733,-0.41762996,0.6539297,0.41987764999999994,0.0,0.0,0.0
2026-05-10 20:51:13.120,734,-0.41762996,0.6539297,0.41987764999999994,0.0,0.0,0.0
2026-05-10 20:51:13.130,735,-0.41762996,0.6539297,0.41987765,0.0,0.0,0.0
2026-05-10 20:51:13.140,736,-0.41762996,0.6539297,0.41987764999999994,0.0,0.0,0.0
2026-05-10 20:51:13.150,737,-0.41762996,0.6539297,0.41987765,0.0,0.0,0.0
2026-05-10 20:51:13.160,738,-0.41762996,0.6539297,0.41987764999999994,0.0,0.0,0.0
2026-05-10 20:51:13.170,739,-0.41762996,0.6539297,0.41987765,0.0,0.0,0.0
2026-05-10 20:51:13.180,740,-0.41762996,0.6539297,0.41987764999999994,0.0,0.0,0.0
2026-05-10 20:51:13.190,741,-0.41762996,0.6539297,0.41987765,0.0,0.0,0.0
2026-05-10 20:51:13.200,742,-0.41762996,0.6539297,0.41987764999999994,0.0,0.0,0.0
2026-05-10 20:51:13.210,743,-0.41762996,0.6539297,0.41987764999999994,0.0,0.0,0.0
2026-05-10 20:51:13.220,744,-0.41762996,0.6539297,0.41987765,0.0,0.0,0.0
2026-05-10 20:51:13.230,745,-0.41762996,0.6539297,0.41987765,0.0,0.0,0.0
2026-05-10 20:51:13.240,746,-0.41762996,0.6539297,0.41987765,0.0,0.0,0.0
2026-05-10 20:51:13.250,747,-0.41762996,0.6539297,0.41987765,0.0,0.0,0.0
2026-05-10 20:51:13.260,748,-0.41762996,0.6539297,0.41987764999999994,0.0,0.0,0.0
2026-05-10 20:51:13.270,749,-0.41762996,0.6539297,0.41987764999999994,0.0,0.0,0.0
2026-05-10 20:51:13.280,750,-0.41762996,0.6539297,0.41987765,0.0,0.0,0.0
2026-05-10 20:51:13.290,751,-0.41762996,0.6539297,0.41987765,0.0,0.0,0.0
2026-05-10 20:51:13.300,752,-0.41762996,0.6539297,0.41987765,0.0,0.0,0.0
2026-05-10 20:51:13.310,753,-0.41762996,0.6539297,0.41987765,0.0,0.0,0.0
2026-05-10 20:51:13.320,754,-0.41762996,0.6539297,0.41987765,0.0,0.0,0.0
2026-05-10 20:51:13.330,755,-0.41762996,0.6539297,0.41987765,0.0,0.0,0.0
2026-05-10 20:51:13.340,756,-0.41762996,0.6539297,0.41987765,0.0,0.0,0.0
2026-05-10 20:51:13.350,757,-0.41762996,0.6539297,0.41987765,0.0,0.0,0.0
2026-05-10 20:51:13.360,758,-0.41762996,0.6539297,0.41987764999999994,0.0,0.0,0.0
2026-05-10 20:51:13.370,759,-0.41762996,0.6539297,0.41987764999999994,0.0,0.0,0.0
2026-05-10 20:51:13.380,760,-0.41762996,0.6539297,0.41987765,0.0,0.0,0.0
2026-05-10 20:51:13.390,761,-0.41762996,0.6539297,0.41987765,0.0,0.0,0.0
2026-05-10 20:51:13.400,762,-0.41762996,0.6539297,0.41987765,0.0,0.0,0.0
2026-05-10 20:51:13.410,763,-0.41762996,0.6539297,0.41987764999999994,0.0,0.0,0.0
2026-05-10 20:51:13.420,764,-0.41762996,0.6539297,0.41987765,0.0,0.0,0.0
2026-05-10 20:51:13.430,765,-0.41762996,0.6539297,0.41987765,0.0,0.0,0.0
2026-05-10 20:51:13.440,766,-0.41762996,0.6539297,0.41987765,0.0,0.0,0.0
2026-05-10 20:51:13.450,767,-0.41762996,0.6539297,0.41987765,0.0,0.0,0.0
2026-05-10 20:51:13.460,768,-0.41762996,0.6539297,0.41987764999999994,0.0,0.0,0.0
2026-05-10 20:51:13.470,769,-0.41762996,0.6539297,0.41987764999999994,0.0,0.0,0.0
2026-05-10 20:51:13.480,770,-0.41762996,0.6539297,0.41987765,0.0,0.0,0.0
2026-05-10 20:51:13.490,771,-0.41762996,0.6539297,0.41987764999999994,0.0,0.0,0.0
2026-05-10 20:51:13.500,772,-0.41762996,0.6539297,0.41987764999999994,0.0,0.0,0.0
2026-05-10 20:51:13.510,773,-0.41762996,0.6539297,0.41987765,0.0,0.0,0.0
2026-05-10 20:51:13.520,774,-0.41762996,0.6539297,0.41987764999999994,0.0,0.0,0.0
2026-05-10 20:51:13.530,775,-0.41762996,0.6539297,0.41987765,0.0,0.0,0.0
2026-05-10 20:51:13.540,776,-0.41762996,0.6539297,0.41987765,0.0,0.0,0.0
2026-05-10 20:51:13.550,777,-0.41762996,0.6539297,0.41987764999999994,0.0,0.0,0.0
2026-05-10 20:51:13.560,778,-0.41762996,0.6539297,0.41987764999999994,0.0,0.0,0.0
2026-05-10 20:51:13.570,779,-0.41762996,0.6539297,0.41987764999999994,0.0,0.0,0.0
2026-05-10 20:51:13.580,780,-0.41762996,0.6539297,0.41987765,0.0,0.0,0.0
2026-05-10 20:51:13.590,781,-0.41762996,0.6539297,0.41987764999999994,0.0,0.0,0.0
2026-05-10 20:51:13.600,782,-0.41762996,0.6539297,0.41987764999999994,0.0,0.0,0.0
2026-05-10 20:51:13.610,783,-0.41762996,0.6539297,0.41987765,0.0,0.0,0.0
2026-05-10 20:51:13.620,784,-0.41762996,0.6539297,0.41987765,0.0,0.0,0.0
2026-05-10 20:51:13.630,785,-0.41762996,0.6539297,0.41987764999999994,0.0,0.0,0.0
2026-05-10 20:51:13.640,786,-0.41762996,0.6539297,0.41987765,0.0,0.0,0.0
2026-05-10 20:51:13.650,787,-0.41762996,0.6539297,0.41987765,0.0,0.0,0.0
2026-05-10 20:51:13.660,788,-0.41762996,0.6539297,0.41987764999999994,0.0,0.0,0.0
2026-05-10 20:51:13.670,789,-0.41762996,0.6539297,0.41987764999999994,0.0,0.0,0.0
2026-05-10 20:51:13.680,790,-0.41762996,0.6539297,0.41987764999999994,0.0,0.0,0.0
2026-05-10 20:51:13.690,791,-0.41762996,0.6539297,0.41987764999999994,0.0,0.0,0.0
2026-05-10 20:51:13.700,792,-0.41762996,0.6539297,0.41987764999999994,0.0,0.0,0.0
2026-05-10 20:51:13.710,793,-0.41762996,0.6539297,0.41987764999999994,0.0,0.0,0.0
2026-05-10 20:51:13.720,794,-0.41762996,0.6539297,0.41987764999999994,0.0,0.0,0.0
2026-05-10 20:51:13.730,795,-0.41762996,0.6539297,0.41987764999999994,0.0,0.0,0.0
2026-05-10 20:51:13.740,796,-0.41762996,0.6539297,0.41987764999999994,0.0,0.0,0.0
2026-05-10 20:51:13.750,797,-0.41762996,0.6539297,0.41987764999999994,0.0,0.0,0.0
2026-05-10 20:51:13.760,798,-0.41762996,0.6539297,0.41987765,0.0,0.0,0.0
2026-05-10 20:51:13.770,799,-0.41762996,0.6539297,0.41987765,0.0,0.0,0.0
2026-05-10 20:51:13.780,800,-0.41762996,0.6539297,0.41987764999999994,0.0,0.0,0.0
2026-05-10 20:51:13.790,801,-0.41762996,0.6539297,0.41987765,0.0,0.0,0.0
2026-05-10 20:51:13.800,802,-0.41762996,0.6539297,0.41987764999999994,0.0,0.0,0.0
2026-05-10 20:51:13.810,803,-0.41762996,0.6539297,0.41987764999999994,0.0,0.0,0.0
2026-05-10 20:51:13.820,804,-0.41762996,0.6539297,0.41987764999999994,0.0,0.0,0.0
2026-05-10 20:51:13.830,805,-0.41762996,0.6539297,0.41987764999999994,0.0,0.0,0.0
2026-05-10 20:51:13.840,806,-0.41762996,0.6539297,0.41987764999999994,0.0,0.0,0.0
2026-05-10 20:51:13.850,807,-0.41762996,0.6539297,0.41987764999999994,0.0,0.0,0.0
2026-05-10 20:51:13.860,808,-0.41762996,0.6539297,0.41987764999999994,0.0,0.0,0.0
2026-05-10 20:51:13.870,809,-0.41762996,0.6539297,0.41987764999999994,0.0,0.0,0.0
2026-05-10 20:51:13.880,810,-0.41762996,0.6539297,0.41987764999999994,0.0,0.0,0.0
2026-05-10 20:51:13.890,811,-0.41762996,0.6539297,0.41987764999999994,0.0,0.0,0.0
2026-05-10 20:51:13.900,812,-0.41762996,0.6539297,0.41987764999999994,0.0,0.0,0.0
2026-05-10 20:51:13.910,813,-0.41762996,0.6539297,0.41987764999999994,0.0,0.0,0.0
2026-05-10 20:51:13.920,814,-0.41762996,0.6539297,0.41987764999999994,0.0,0.0,0.0
2026-05-10 20:51:13.930,815,-0.41762996,0.6539297,0.41987764999999994,0.0,0.0,0.0
2026-05-10 20:51:13.940,816,-0.41762996,0.6539297,0.41987764999999994,0.0,0.0,0.0
2026-05-10 20:51:13.950,817,-0.41762996,0.6539297,0.41987764999999994,0.0,0.0,0.0
2026-05-10 20:51:13.960,818,-0.41762996,0.6539297,0.41987764999999994,0.0,0.0,0.0
2026-05-10 20:51:13.970,819,-0.41762996,0.6539297,0.41987764999999994,0.0,0.0,0.0
2026-05-10 20:51:13.980,820,-0.41762996,0.6539297,0.41987765,0.0,0.0,0.0
2026-05-10 20:51:13.990,821,-0.41762996,0.6539297,0.41987765,0.0,0.0,0.0
2026-05-10 20:51:14.000,822,-0.41762996,0.6539297,0.41987764999999994,0.0,0.0,0.0
2026-05-10 20:51:14.010,823,-0.41762996,0.6539297,0.41987765,0.0,0.0,0.0
2026-05-10 20:51:14.020,824,-0.41762996,0.6539297,0.41987764999999994,0.0,0.0,0.0
2026-05-10 20:51:14.030,825,-0.41762996,0.6539297,0.41987764999999994,0.0,0.0,0.0
2026-05-10 20:51:14.040,826,-0.41762996,0.6539297,0.41987764999999994,0.0,0.0,0.0
2026-05-10 20:51:14.050,827,-0.41762996,0.6539297,0.41987764999999994,0.0,0.0,0.0
2026-05-10 20:51:14.060,828,-0.41762996,0.6539297,0.41987764999999994,0.0,0.0,0.0
2026-05-10 20:51:14.070,829,-0.41762996,0.6539297,0.41987764999999994,0.0,0.0,0.0
2026-05-10 20:51:14.080,830,-0.41762996,0.6539297,0.41987764999999994,0.0,0.0,0.0
2026-05-10 20:51:14.090,831,-0.41762996,0.6539297,0.41987764999999994,0.0,0.0,0.0
2026-05-10 20:51:14.100,832,-0.41762996,0.6539297,0.41987764999999994,0.0,0.0,0.0
2026-05-10 20:51:14.110,833,-0.41762996,0.6539297,0.41987765,0.0,0.0,0.0
2026-05-10 20:51:14.120,834,-0.41762996,0.6539297,0.41987764999999994,0.0,0.0,0.0
2026-05-10 20:51:14.130,835,-0.41762996,0.6539297,0.41987764999999994,0.0,0.0,0.0
2026-05-10 20:51:14.140,836,-0.41762996,0.6539297,0.41987764999999994,0.0,0.0,0.0
2026-05-10 20:51:14.150,837,-0.41762996,0.6539297,0.41987764999999994,0.0,0.0,0.0
2026-05-10 20:51:14.160,838,-0.41762996,0.6539297,0.41987764999999994,0.0,0.0,0.0
2026-05-10 20:51:14.170,839,-0.41762996,0.6539297,0.41987764999999994,0.0,0.0,0.0
2026-05-10 20:51:14.180,840,-0.41762996,0.6539297,0.41987764999999994,0.0,0.0,0.0
2026-05-10 20:51:14.190,841,-0.41762996,0.6539297,0.41987764999999994,0.0,0.0,0.0
2026-05-10 20:51:14.200,842,-0.41762996,0.6539297,0.41987764999999994,0.0,0.0,0.0
2026-05-10 20:51:14.210,843,-0.41762996,0.6539297,0.41987764999999994,0.0,0.0,0.0
2026-05-10 20:51:14.220,844,-0.41762996,0.6539297,0.41987765,0.0,0.0,0.0
2026-05-10 20:51:14.230,845,-0.41762996,0.6539297,0.41987764999999994,0.0,0.0,0.0
2026-05-10 20:51:14.240,846,-0.41762996,0.6539297,0.41987764999999994,0.0,0.0,0.0
2026-05-10 20:51:14.250,847,-0.41762996,0.6539297,0.41987764999999994,0.0,0.0,0.0
2026-05-10 20:51:14.260,848,-0.41762996,0.6539297,0.41987764999999994,0.0,0.0,0.0
2026-05-10 20:51:14.270,849,-0.41762996,0.6539297,0.41987764999999994,0.0,0.0,0.0
2026-05-10 20:51:14.280,850,-0.41762996,0.6539297,0.41987764999999994,0.0,0.0,0.0
2026-05-10 20:51:14.290,851,-0.41762996,0.6539297,0.41987764999999994,0.0,0.0,0.0
2026-05-10 20:51:14.300,852,-0.41762996,0.6539297,0.41987764999999994,0.0,0.0,0.0
2026-05-10 20:51:14.310,853,-0.41762996,0.6539297,0.41987764999999994,0.0,0.0,0.0
2026-05-10 20:51:14.320,854,-0.41762996,0.6539297,0.41987765,0.0,0.0,0.0
2026-05-10 20:51:14.330,855,-0.41762996,0.6539297,0.41987764999999994,0.0,0.0,0.0
2026-05-10 20:51:14.340,856,-0.41762996,0.6539297,0.41987764999999994,0.0,0.0,0.0
2026-05-10 20:51:14.350,857,-0.41762996,0.6539297,0.41987764999999994,0.0,0.0,0.0
2026-05-10 20:51:14.360,858,-0.41762996,0.6539297,0.41987764999999994,0.0,0.0,0.0
2026-05-10 20:51:14.370,859,-0.41762996,0.6539297,0.41987764999999994,0.0,0.0,0.0
2026-05-10 20:51:14.380,860,-0.41762996,0.6539297,0.41987764999999994,0.0,0.0,0.0
2026-05-10 20:51:14.390,861,-0.41762996,0.6539297,0.41987764999999994,0.0,0.0,0.0
2026-05-10 20:51:14.400,862,-0.41762996,0.6539297,0.41987764999999994,0.0,0.0,0.0
2026-05-10 20:51:14.410,863,-0.41762996,0.6539297,0.41987764999999994,0.0,0.0,0.0
2026-05-10 20:51:14.420,864,-0.41762996,0.6539297,0.41987765,0.0,0.0,0.0
2026-05-10 20:51:14.430,865,-0.41762996,0.6539297,0.41987764999999994,0.0,0.0,0.0
2026-05-10 20:51:14.440,866,-0.41762996,0.6539297,0.41987764999999994,0.0,0.0,0.0
2026-05-10 20:51:14.450,867,-0.41762996,0.6539297,0.41987764999999994,0.0,0.0,0.0
2026-05-10 20:51:14.460,868,-0.41762996,0.6539297,0.41987764999999994,0.0,0.0,0.0
2026-05-10 20:51:14.470,869,-0.41762996,0.6539297,0.41987764999999994,0.0,0.0,0.0
2026-05-10 20:51:14.480,870,-0.41762996,0.6539297,0.41987764999999994,0.0,0.0,0.0
2026-05-10 20:51:14.490,871,-0.41762996,0.6539297,0.41987764999999994,0.0,0.0,0.0
2026-05-10 20:51:14.500,872,-0.41762996,0.6539297,0.41987764999999994,0.0,0.0,0.0
2026-05-10 20:51:14.510,873,-0.41762996,0.6539297,0.41987764999999994,0.0,0.0,0.0
2026-05-10 20:51:14.520,874,-0.41762996,0.6539297,0.41987765,0.0,0.0,0.0
2026-05-10 20:51:14.530,875,-0.41762996,0.6539297,0.41987764999999994,0.0,0.0,0.0
2026-05-10 20:51:14.540,876,-0.41762996,0.6539297,0.41987764999999994,0.0,0.0,0.0
2026-05-10 20:51:14.550,877,-0.41762996,0.6539297,0.41987764999999994,0.0,0.0,0.0
2026-05-10 20:51:14.560,878,-0.41762996,0.6539297,0.41987764999999994,0.0,0.0,0.0
2026-05-10 20:51:14.570,879,-0.41762996,0.6539297,0.41987764999999994,0.0,0.0,0.0
2026-05-10 20:51:14.580,880,-0.41762996,0.6539297,0.41987764999999994,0.0,0.0,0.0
2026-05-10 20:51:14.590,881,-0.41762996,0.6539297,0.41987764999999994,0.0,0.0,0.0
2026-05-10 20:51:14.600,882,-0.41762996,0.6539297,0.41987764999999994,0.0,0.0,0.0
2026-05-10 20:51:14.610,883,-0.41762996,0.6539297,0.41987765,0.0,0.0,0.0
2026-05-10 20:51:14.620,884,-0.41762996,0.6539297,0.41987764999999994,0.0,0.0,0.0
2026-05-10 20:51:14.630,885,-0.41762996,0.6539297,0.41987764999999994,0.0,0.0,0.0
2026-05-10 20:51:14.640,886,-0.41762996,0.6539297,0.41987764999999994,0.0,0.0,0.0
2026-05-10 20:51:14.650,887,-0.41762996,0.6539297,0.41987764999999994,0.0,0.0,0.0
2026-05-10 20:51:14.660,888,-0.41762996,0.6539297,0.41987764999999994,0.0,0.0,0.0
2026-05-10 20:51:14.670,889,-0.41762996,0.6539297,0.41987764999999994,0.0,0.0,0.0
2026-05-10 20:51:14.680,890,-0.41762996,0.6539297,0.41987764999999994,0.0,0.0,0.0
2026-05-10 20:51:14.690,891,-0.41762996,0.6539297,0.41987764999999994,0.0,0.0,0.0
2026-05-10 20:51:14.700,892,-0.41762996,0.6539297,0.41987764999999994,0.0,0.0,0.0
2026-05-10 20:51:14.710,893,-0.41762996,0.6539297,0.41987765,0.0,0.0,0.0
2026-05-10 20:51:14.720,894,-0.41762996,0.6539297,0.41987764999999994,0.0,0.0,0.0
2026-05-10 20:51:14.730,895,-0.41762996,0.6539297,0.41987764999999994,0.0,0.0,0.0
2026-05-10 20:51:14.740,896,-0.41762996,0.6539297,0.41987764999999994,0.0,0.0,0.0
2026-05-10 20:51:14.750,897,-0.41762996,0.6539297,0.41987764999999994,0.0,0.0,0.0
2026-05-10 20:51:14.760,898,-0.41762996,0.6539297,0.41987764999999994,0.0,0.0,0.0
2026-05-10 20:51:14.770,899,-0.41762996,0.6539297,0.41987764999999994,0.0,0.0,0.0
2026-05-10 20:51:14.780,900,-0.41762996,0.6539297,0.41987764999999994,0.0,0.0,0.0
2026-05-10 20:51:14.790,901,-0.41762996,0.6539297,0.41987764999999994,0.0,0.0,0.0
2026-05-10 20:51:14.800,902,-0.41762996,0.6539297,0.41987764999999994,0.0,0.0,0.0
2026-05-10 20:51:14.810,903,-0.41762996,0.6539297,0.41987764999999994,0.0,0.0,0.0
2026-05-10 20:51:14.820,904,-0.41762996,0.6539297,0.41987764999999994,0.0,0.0,0.0
2026-05-10 20:51:14.830,905,-0.41762996,0.6539297,0.41987765,0.0,0.0,0.0
2026-05-10 20:51:14.840,906,-0.41762996,0.6539297,0.41987764999999994,0.0,0.0,0.0
2026-05-10 20:51:14.850,907,-0.41762996,0.6539297,0.41987764999999994,0.0,0.0,0.0
2026-05-10 20:51:14.860,908,-0.41762996,0.6539297,0.41987764999999994,0.0,0.0,0.0
2026-05-10 20:51:14.870,909,-0.41762996,0.6539297,0.41987764999999994,0.0,0.0,0.0
2026-05-10 20:51:14.880,910,-0.41762996,0.6539297,0.41987764999999994,0.0,0.0,0.0
2026-05-10 20:51:14.890,911,-0.41762996,0.6539297,0.41987765,0.0,0.0,0.0
2026-05-10 20:51:14.900,912,-0.41762996,0.6539297,0.41987764999999994,0.0,0.0,0.0
2026-05-10 20:51:14.910,913,-0.41762996,0.6539297,0.41987764999999994,0.0,0.0,0.0
2026-05-10 20:51:14.920,914,-0.41762996,0.6539297,0.41987764999999994,0.0,0.0,0.0
2026-05-10 20:51:14.930,915,-0.41762996,0.6539297,0.41987764999999994,0.0,0.0,0.0
2026-05-10 20:51:14.940,916,-0.41762996,0.6539297,0.41987764999999994,0.0,0.0,0.0
2026-05-10 20:51:14.950,917,-0.41762996,0.6539297,0.41987764999999994,0.0,0.0,0.0
2026-05-10 20:51:14.960,918,-0.41762996,0.6539297,0.41987764999999994,0.0,0.0,0.0
2026-05-10 20:51:14.970,919,-0.41762996,0.6539297,0.41987764999999994,0.0,0.0,0.0
2026-05-10 20:51:14.980,920,-0.41762996,0.6539297,0.41987764999999994,0.0,0.0,0.0
2026-05-10 20:51:14.990,921,-0.41762996,0.6539297,0.41987764999999994,0.0,0.0,0.0
2026-05-10 20:51:15.000,922,-0.41762996,0.6539297,0.41987764999999994,0.0,0.0,0.0
2026-05-10 20:51:15.010,923,-0.41762996,0.6539297,0.41987765,0.0,0.0,0.0
2026-05-10 20:51:15.020,924,-0.41762996,0.6539297,0.41987764999999994,0.0,0.0,0.0
2026-05-10 20:51:15.030,925,-0.41762996,0.6539297,0.41987764999999994,0.0,0.0,0.0
2026-05-10 20:51:15.040,926,-0.41762996,0.6539297,0.41987764999999994,0.0,0.0,0.0
2026-05-10 20:51:15.050,927,-0.41762996,0.6539297,0.41987764999999994,0.0,0.0,0.0
2026-05-10 20:51:15.060,928,-0.41762996,0.6539297,0.41987764999999994,0.0,0.0,0.0
2026-05-10 20:51:15.070,929,-0.41762996,0.6539297,0.41987764999999994,0.0,0.0,0.0
2026-05-10 20:51:15.080,930,-0.41762996,0.6539297,0.41987764999999994,0.0,0.0,0.0
2026-05-10 20:51:15.090,931,-0.41762996,0.6539297,0.41987764999999994,0.0,0.0,0.0
2026-05-10 20:51:15.100,932,-0.41762996,0.6539297,0.41987764999999994,0.0,0.0,0.0
2026-05-10 20:51:15.110,933,-0.41762996,0.6539297,0.41987765,0.0,0.0,0.0
2026-05-10 20:51:15.120,934,-0.41762996,0.6539297,0.41987764999999994,0.0,0.0,0.0
2026-05-10 20:51:15.130,935,-0.41762996,0.6539297,0.41987764999999994,0.0,0.0,0.0
2026-05-10 20:51:15.140,936,-0.41762996,0.6539297,0.41987764999999994,0.0,0.0,0.0
2026-05-10 20:51:15.150,937,-0.41762996,0.6539297,0.41987764999999994,0.0,0.0,0.0
2026-05-10 20:51:15.160,938,-0.41762996,0.6539297,0.41987764999999994,0.0,0.0,0.0
2026-05-10 20:51:15.170,939,-0.41762996,0.6539297,0.41987764999999994,0.0,0.0,0.0
2026-05-10 20:51:15.180,940,-0.41762996,0.6539297,0.41987764999999994,0.0,0.0,0.0
2026-05-10 20:51:15.190,941,-0.41762996,0.6539297,0.41987764999999994,0.0,0.0,0.0
2026-05-10 20:51:15.200,942,-0.41762996,0.6539297,0.41987764999999994,0.0,0.0,0.0
2026-05-10 20:51:15.210,943,-0.41762996,0.6539297,0.41987764999999994,0.0,0.0,0.0
2026-05-10 20:51:15.220,944,-0.41762996,0.6539297,0.41987764999999994,0.0,0.0,0.0
2026-05-10 20:51:15.230,945,-0.41762996,0.6539297,0.41987764999999994,0.0,0.0,0.0
2026-05-10 20:51:15.240,946,-0.41762996,0.6539297,0.41987764999999994,0.0,0.0,0.0
2026-05-10 20:51:15.250,947,-0.41762996,0.6539297,0.41987764999999994,0.0,0.0,0.0
2026-05-10 20:51:15.260,948,-0.41762996,0.6539297,0.41987764999999994,0.0,0.0,0.0
2026-05-10 20:51:15.270,949,-0.41762996,0.6539297,0.41987764999999994,0.0,0.0,0.0
2026-05-10 20:51:15.280,950,-0.41762996,0.6539297,0.41987764999999994,0.0,0.0,0.0
2026-05-10 20:51:15.290,951,-0.41762996,0.6539297,0.41987765,0.0,0.0,0.0
2026-05-10 20:51:15.300,952,-0.41762996,0.6539297,0.41987764999999994,0.0,0.0,0.0
2026-05-10 20:51:15.310,953,-0.41762996,0.6539297,0.41987764999999994,0.0,0.0,0.0
2026-05-10 20:51:15.320,954,-0.41762996,0.6539297,0.41987764999999994,0.0,0.0,0.0
2026-05-10 20:51:15.330,955,-0.41762996,0.6539297,0.41987764999999994,0.0,0.0,0.0
2026-05-10 20:51:15.340,956,-0.41762996,0.6539297,0.41987764999999994,0.0,0.0,0.0
2026-05-10 20:51:15.350,957,-0.41762996,0.6539297,0.41987764999999994,0.0,0.0,0.0
2026-05-10 20:51:15.360,958,-0.41762996,0.6539297,0.41987764999999994,0.0,0.0,0.0
2026-05-10 20:51:15.370,959,-0.41762996,0.6539297,0.41987764999999994,0.0,0.0,0.0
2026-05-10 20:51:15.380,960,-0.41762996,0.6539297,0.41987764999999994,0.0,0.0,0.0
2026-05-10 20:51:15.390,961,-0.41762996,0.6539297,0.41987764999999994,0.0,0.0,0.0
2026-05-10 20:51:15.400,962,-0.43979105333333335,0.6518195666666666,0.37087665000000003,0.0,0.0,0.0
2026-05-10 20:51:15.410,963,-0.4508716,0.6507645,0.34637615,0.0,0.0,0.0
2026-05-10 20:51:15.420,964,-0.4508716,0.6507645,0.34637615,0.0,0.0,0.0
2026-05-10 20:51:15.430,965,-0.4508716,0.6507645,0.34637615,0.0,0.0,0.0
2026-05-10 20:51:15.440,966,-0.4508716,0.6507645,0.34637615,0.0,0.0,0.0
2026-05-10 20:51:15.450,967,-0.4508716,0.6507645,0.34637615,0.0,0.0,0.0
2026-05-10 20:51:15.460,968,-0.4508716,0.6507645,0.34637615,0.0,0.0,0.0
2026-05-10 20:51:15.470,969,-0.4508716,0.6507645,0.34637615,0.0,0.0,0.0
2026-05-10 20:51:15.480,970,-0.4508716,0.6507645,0.34637615,0.0,0.0,0.0
2026-05-10 20:51:15.490,971,-0.4508716,0.6507645,0.34637615,0.0,0.0,0.0
2026-05-10 20:51:15.500,972,-0.4508716,0.6507645,0.34637615,0.0,0.0,0.0
2026-05-10 20:51:15.510,973,-0.4508716,0.6507645,0.34637615,0.0,0.0,0.0
2026-05-10 20:51:15.520,974,-0.4508716,0.6507645,0.34637615,0.0,0.0,0.0
2026-05-10 20:51:15.530,975,-0.4508716,0.6507645,0.34637615,0.0,0.0,0.0
2026-05-10 20:51:15.540,976,-0.4508716,0.6507645,0.34637615,0.0,0.0,0.0
2026-05-10 20:51:15.550,977,-0.4508716,0.6507645,0.34637615,0.0,0.0,0.0
2026-05-10 20:51:15.560,978,-0.4508716,0.6507645,0.34637615,0.0,0.0,0.0
2026-05-10 20:51:15.570,979,-0.4508716,0.6507645,0.34637615,0.0,0.0,0.0
2026-05-10 20:51:15.580,980,-0.4508716,0.6507645,0.34637615,0.0,0.0,0.0
2026-05-10 20:51:15.590,981,-0.4508716,0.6507645,0.34637615,0.0,0.0,0.0
2026-05-10 20:51:15.600,982,-0.4508716,0.6507645,0.34637615,0.0,0.0,0.0
2026-05-10 20:51:15.610,983,-0.4508716,0.6507645,0.34637615,0.0,0.0,0.0
2026-05-10 20:51:15.620,984,-0.4508716,0.6507645,0.34637615,0.0,0.0,0.0
2026-05-10 20:51:15.630,985,-0.4508716,0.6507645,0.34637615,0.0,0.0,0.0
2026-05-10 20:51:15.640,986,-0.4508716,0.6507645,0.34637615,0.0,0.0,0.0
2026-05-10 20:51:15.650,987,-0.4508716,0.6507645,0.34637615,0.0,0.0,0.0
2026-05-10 20:51:15.660,988,-0.4508716,0.6507645,0.34637615,0.0,0.0,0.0
2026-05-10 20:51:15.670,989,-0.4508716,0.6507645,0.34637615,0.0,0.0,0.0
2026-05-10 20:51:15.680,990,-0.4508716,0.6507645,0.34637615,0.0,0.0,0.0
2026-05-10 20:51:15.690,991,-0.4508716,0.6507645,0.34637615,0.0,0.0,0.0
2026-05-10 20:51:15.700,992,-0.4508716,0.6507645,0.34637615,0.0,0.0,0.0
2026-05-10 20:51:15.710,993,-0.4508716,0.6507645,0.34637615,0.0,0.0,0.0
2026-05-10 20:51:15.720,994,-0.4508716,0.6507645,0.34637615,0.0,0.0,0.0
2026-05-10 20:51:15.730,995,-0.4508716,0.6507645,0.34637615,0.0,0.0,0.0
2026-05-10 20:51:15.740,996,-0.4508716,0.6507645,0.34637615,0.0,0.0,0.0
2026-05-10 20:51:15.750,997,-0.4508716,0.6507645,0.34637615,0.0,0.0,0.0
2026-05-10 20:51:15.760,998,-0.4508716,0.6507645,0.34637615,0.0,0.0,0.0
2026-05-10 20:51:15.770,999,-0.4508716,0.6507645,0.34637615,0.0,0.0,0.0
2026-05-10 20:51:15.780,1000,-0.4508716,0.6507645,0.34637615,0.0,0.0,0.0
2026-05-10 20:51:15.790,1001,-0.4508716,0.6507645,0.34637615,0.0,0.0,0.0
