timestamp,id,acc_x,acc_y,acc_z,gyro_x,gyro_y,gyro_z
2026-05-10 20:55:23.620,1,0.18634558,0.089189604,0.9594342,0.0,0.0,0.0
2026-05-10 20:55:23.630,2,0.17397554333333334,0.08633537266666667,0.9594342,0.0,0.0,0.0
2026-05-10 20:55:23.640,3,0.16160550666666668,0.08348114133333333,0.9594342,0.0,0.0,0.0
2026-05-10 20:55:23.650,4,0.14923547,0.08062691,0.9594342,0.0,0.0,0.0
2026-05-10 20:55:23.660,5,0.10703364,0.07237003,1.1930734,0.0,0.0,0.0
2026-05-10 20:55:23.670,6,0.10703364,0.07237003,1.1930734,0.0,0.0,0.0
2026-05-10 20:55:23.680,7,0.10703364,0.07237003,1.1930734,0.0,0.0,0.0
2026-05-10 20:55:23.690,8,0.10703364,0.07237003,1.1930734,0.0,0.0,0.0
2026-05-10 20:55:23.700,9,0.10703364,0.07237003,1.1930734,0.0,0.0,0.0
2026-05-10 20:55:23.710,10,0.10703364,0.07237003,1.1930734,0.0,0.0,0.0
2026-05-10 20:55:23.720,11,0.10703364,0.07237003,1.1930734,0.0,0.0,0.0
2026-05-10 20:55:23.730,12,0.10703364,0.07237003,1.1930734,0.0,0.0,0.0
2026-05-10 20:55:23.740,13,0.10703364,0.07237003,1.1930734,0.0,0.0,0.0
2026-05-10 20:55:23.750,14,0.10703364,0.07237003,1.1930734,0.0,0.0,0.0
2026-05-10 20:55:23.760,15,0.10703364,0.07237003,1.1930734,0.0,0.0,0.0
2026-05-10 20:55:23.770,16,0.10703364,0.07237003,1.1930734,0.0,0.0,0.0
2026-05-10 20:55:23.780,17,0.10703364,0.07237003,1.1930734,0.0,0.0,0.0
2026-05-10 20:55:23.790,18,0.10703364,0.07237003,1.1930734,0.0,0.0,0.0
2026-05-10 20:55:23.800,19,0.10703364,0.07237003,1.1930734,0.0,0.0,0.0
2026-05-10 20:55:23.810,20,0.10703364,0.07237003,1.1930734,0.0,0.0,0.0
2026-05-10 20:55:23.820,21,0.10703364,0.07237003,1.1930734,0.0,0.0,0.0
2026-05-10 20:55:23.830,22,0.10703364,0.07237003,1.1930734,0.0,0.0,0.0
2026-05-10 20:55:23.840,23,0.113149844,0.07136086,1.2687004,0.0,0.0,0.0
2026-05-10 20:55:23.850,24,0.113149844,0.07136086,1.2687004,0.0,0.0,0.0
2026-05-10 20:55:23.860,25,0.113149844,0.07136086,1.2687004,0.0,0.0,0.0
2026-05-10 20:55:23.870,26,0.113149844,0.07136086,1.2687004,0.0,0.0,0.0
2026-05-10 20:55:23.880,27,0.113149844,0.07136086,1.2687004,0.0,0.0,0.0
2026-05-10 20:55:23.890,28,0.113149844,0.07136086,1.2687004,0.0,0.0,0.0
2026-05-10 20:55:23.900,29,0.113149844,0.07136086,1.2687004,0.0,0.0,0.0
2026-05-10 20:55:23.910,30,0.12385321,0.06697247,1.2753364,0.0,0.0,0.0
2026-05-10 20:55:23.920,31,0.12385321,0.06697247,1.2753364,0.0,0.0,0.0
2026-05-10 20:55:23.930,32,0.12385321,0.06697247,1.2753364,0.0,0.0,0.0
2026-05-10 20:55:23.940,33,0.12385321,0.06697247,1.2753364,0.0,0.0,0.0
2026-05-10 20:55:23.950,34,0.12385321,0.06697247,1.2753364,0.0,0.0,0.0
2026-05-10 20:55:23.960,35,0.12385321,0.06697247,1.2753364,0.0,0.0,0.0
2026-05-10 20:55:23.970,36,0.12385321,0.06697247,1.2753364,0.0,0.0,0.0
2026-05-10 20:55:23.980,37,0.12385321,0.06697247,1.2753364,0.0,0.0,0.0
2026-05-10 20:55:23.990,38,0.12385321,0.06697247,1.2753364,0.0,0.0,0.0
2026-05-10 20:55:24.000,39,0.12385321,0.06697247,1.2753364,0.0,0.0,0.0
2026-05-10 20:55:24.010,40,0.12385321,0.06697247,1.2753364,0.0,0.0,0.0
2026-05-10 20:55:24.020,41,0.12385321,0.06697247,1.2753364,0.0,0.0,0.0
2026-05-10 20:55:24.030,42,0.12385321,0.06697247,1.2753364,0.0,0.0,0.0
2026-05-10 20:55:24.040,43,0.12385321,0.06697247,1.2753364,0.0,0.0,0.0
2026-05-10 20:55:24.050,44,0.12385321,0.06697247,1.2753364,0.0,0.0,0.0
2026-05-10 20:55:24.060,45,0.16411315,0.063103974,1.2687004,0.0,0.0,0.0
2026-05-10 20:55:24.070,46,0.16411315,0.063103974,1.2687004,0.0,0.0,0.0
2026-05-10 20:55:24.080,47,0.16411315,0.063103974,1.2687004,0.0,0.0,0.0
2026-05-10 20:55:24.090,48,0.16411315,0.063103974,1.2687004,0.0,0.0,0.0
2026-05-10 20:55:24.100,49,0.16411315,0.063103974,1.2687004,0.0,0.0,0.0
2026-05-10 20:55:24.110,50,0.16411315,0.063103974,1.2687004,0.0,0.0,0.0
2026-05-10 20:55:24.120,51,0.1694138666666667,0.05593272066666666,1.2467534,0.0,0.0,0.0
2026-05-10 20:55:24.130,52,0.1800153,0.041590214,1.2028594,0.0,0.0,0.0
2026-05-10 20:55:24.140,53,0.1800153,0.041590214,1.2028594,0.0,0.0,0.0
2026-05-10 20:55:24.150,54,0.1800153,0.041590214,1.2028594,0.0,0.0,0.0
2026-05-10 20:55:24.160,55,0.1800153,0.041590214,1.2028594,0.0,0.0,0.0
2026-05-10 20:55:24.170,56,0.17778286,0.062584095,1.1169266,0.0,0.0,0.0
2026-05-10 20:55:24.180,57,0.17778286,0.062584095,1.1169266,0.0,0.0,0.0
2026-05-10 20:55:24.190,58,0.17778286,0.062584095,1.1169266,0.0,0.0,0.0
2026-05-10 20:55:24.200,59,0.17778286,0.062584095,1.1169266,0.0,0.0,0.0
2026-05-10 20:55:24.210,60,0.17778286,0.062584095,1.1169266,0.0,0.0,0.0
2026-05-10 20:55:24.220,61,0.17778286,0.062584095,1.1169266,0.0,0.0,0.0
2026-05-10 20:55:24.230,62,0.177347085,0.0706383775,1.113077225,0.0,0.0,0.0
2026-05-10 20:55:24.240,63,0.17603976,0.094801225,1.1015291,0.0,0.0,0.0
2026-05-10 20:55:24.250,64,0.177263,0.09686544375,1.097935825,0.0,0.0,0.0
2026-05-10 20:55:24.260,65,0.18093272000000002,0.1030581,1.087156,0.0,0.0,0.0
2026-05-10 20:55:24.270,66,0.18093272000000002,0.1030581,1.087156,0.0,0.0,0.0
2026-05-10 20:55:24.280,67,0.18093272,0.1030581,1.087156,0.0,0.0,0.0
2026-05-10 20:55:24.290,68,0.18093272000000002,0.1030581,1.087156,0.0,0.0,0.0
2026-05-10 20:55:24.300,69,0.18093272000000002,0.1030581,1.087156,0.0,0.0,0.0
2026-05-10 20:55:24.310,70,0.18093272,0.1030581,1.087156,0.0,0.0,0.0
2026-05-10 20:55:24.320,71,0.18093272000000002,0.1030581,1.087156,0.0,0.0,0.0
2026-05-10 20:55:24.330,72,0.17169725333333333,0.12344545999999999,1.0825994666666665,0.0,0.0,0.0
2026-05-10 20:55:24.340,73,0.16707952,0.13363914,1.0803212,0.0,0.0,0.0
2026-05-10 20:55:24.350,74,0.16707952,0.13363914,1.0803212,0.0,0.0,0.0
2026-05-10 20:55:24.360,75,0.13558105,0.1420948,1.0766515,0.0,0.0,0.0
2026-05-10 20:55:24.370,76,0.13558105,0.1420948,1.0766515,0.0,0.0,0.0
2026-05-10 20:55:24.380,77,0.13558105,0.1420948,1.0766515,0.0,0.0,0.0
2026-05-10 20:55:24.390,78,0.12355250333333334,0.18409275333333333,0.9765495,0.0,0.0,0.0
2026-05-10 20:55:24.400,79,0.11753823,0.20509173,0.9264985,0.0,0.0,0.0
2026-05-10 20:55:24.410,80,0.11753823000000001,0.20509173,0.9264985,0.0,0.0,0.0
2026-05-10 20:55:24.420,81,0.11753823,0.20509173,0.9264985,0.0,0.0,0.0
2026-05-10 20:55:24.430,82,0.11753823000000001,0.20509173,0.9264985,0.0,0.0,0.0
2026-05-10 20:55:24.440,83,0.11753823000000001,0.20509173,0.9264985,0.0,0.0,0.0
2026-05-10 20:55:24.450,84,0.11753823,0.20509173,0.9264985,0.0,0.0,0.0
2026-05-10 20:55:24.460,85,0.11753823000000001,0.20509173,0.9264985,0.0,0.0,0.0
2026-05-10 20:55:24.470,86,0.10760958066666666,0.22751783666666667,0.8669674333333334,0.0,0.0,0.0
2026-05-10 20:55:24.480,87,0.102645256,0.23873089,0.8372019,0.0,0.0,0.0
2026-05-10 20:55:24.490,88,0.102645256,0.23873089,0.8372019,0.0,0.0,0.0
2026-05-10 20:55:24.500,89,0.102645256,0.23873089,0.8372019,0.0,0.0,0.0
2026-05-10 20:55:24.510,90,0.102645256,0.23873089,0.8372019,0.0,0.0,0.0
2026-05-10 20:55:24.520,91,0.102645256,0.23873089,0.8372019,0.0,0.0,0.0
2026-05-10 20:55:24.530,92,0.102645256,0.23873089,0.8372019,0.0,0.0,0.0
2026-05-10 20:55:24.540,93,0.102645256,0.23873089,0.8372019,0.0,0.0,0.0
2026-05-10 20:55:24.550,94,0.102645256,0.23873089,0.8372019,0.0,0.0,0.0
2026-05-10 20:55:24.560,95,0.102645256,0.23873089,0.8372019,0.0,0.0,0.0
2026-05-10 20:55:24.570,96,0.102645256,0.23873089,0.8372019,0.0,0.0,0.0
2026-05-10 20:55:24.580,97,0.102645256,0.23873089,0.8372019,0.0,0.0,0.0
2026-05-10 20:55:24.590,98,0.102645256,0.23873089,0.8372019,0.0,0.0,0.0
2026-05-10 20:55:24.600,99,0.102645256,0.23873089,0.8372019,0.0,0.0,0.0
2026-05-10 20:55:24.610,100,0.102645256,0.23873089,0.8372019,0.0,0.0,0.0
2026-05-10 20:55:24.620,101,0.102645256,0.23873089,0.8372019,0.0,0.0,0.0
2026-05-10 20:55:24.630,102,0.102645256,0.23873089,0.8372019,0.0,0.0,0.0
2026-05-10 20:55:24.640,103,0.102645256,0.23873089,0.8372019,0.0,0.0,0.0
2026-05-10 20:55:24.650,104,0.127874618,0.27206423,0.76798935,0.0,0.0,0.0
2026-05-10 20:55:24.660,105,0.15310398,0.30539757,0.6987768,0.0,0.0,0.0
2026-05-10 20:55:24.670,106,0.15310398,0.30539757,0.6987768,0.0,0.0,0.0
2026-05-10 20:55:24.680,107,0.15310398,0.30539757,0.6987768,0.0,0.0,0.0
2026-05-10 20:55:24.690,108,0.15310398,0.30539757,0.6987768,0.0,0.0,0.0
2026-05-10 20:55:24.700,109,0.15310398,0.30539757,0.6987768,0.0,0.0,0.0
2026-05-10 20:55:24.710,110,0.15310398,0.30539757,0.6987768,0.0,0.0,0.0
2026-05-10 20:55:24.720,111,0.18508155333333334,0.29809379666666663,0.6668042999999999,0.0,0.0,0.0
2026-05-10 20:55:24.730,112,0.2490367,0.28348625,0.6028593,0.0,0.0,0.0
2026-05-10 20:55:24.740,113,0.2490367,0.28348625,0.6028593,0.0,0.0,0.0
2026-05-10 20:55:24.750,114,0.2490367,0.28348625,0.6028593,0.0,0.0,0.0
2026-05-10 20:55:24.760,115,0.2490367,0.28348625,0.6028593,0.0,0.0,0.0
2026-05-10 20:55:24.770,116,0.2490367,0.28348625,0.6028593,0.0,0.0,0.0
2026-05-10 20:55:24.780,117,0.2490367,0.28348625,0.6028593,0.0,0.0,0.0
2026-05-10 20:55:24.790,118,0.2490367,0.28348625,0.6028593,0.0,0.0,0.0
2026-05-10 20:55:24.800,119,0.2490367,0.28348625,0.6028593,0.0,0.0,0.0
2026-05-10 20:55:24.810,120,0.2490367,0.28348625,0.6028593,0.0,0.0,0.0
2026-05-10 20:55:24.820,121,0.2490367,0.28348625,0.6028593,0.0,0.0,0.0
2026-05-10 20:55:24.830,122,0.2490367,0.28348625,0.6028593,0.0,0.0,0.0
2026-05-10 20:55:24.840,123,0.2890570866666667,0.2488277366666667,0.5843068133333333,0.0,0.0,0.0
2026-05-10 20:55:24.850,124,0.30906728,0.23149848000000003,0.57503057,0.0,0.0,0.0
2026-05-10 20:55:24.860,125,0.30906728,0.23149848,0.57503057,0.0,0.0,0.0
2026-05-10 20:55:24.870,126,0.5434251,0.269526,0.5428135,0.0,0.0,0.0
2026-05-10 20:55:24.880,127,0.5434251,0.269526,0.5428135,0.0,0.0,0.0
2026-05-10 20:55:24.890,128,0.5434251,0.269526,0.5428135,0.0,0.0,0.0
2026-05-10 20:55:24.900,129,0.5434251,0.269526,0.5428135,0.0,0.0,0.0
2026-05-10 20:55:24.910,130,0.50094802,0.2542354866666667,0.9231090333333333,0.0,0.0,0.0
2026-05-10 20:55:24.920,131,0.47970948,0.24659023,1.1132568,0.0,0.0,0.0
2026-05-10 20:55:24.930,132,0.4797094800000001,0.24659023,1.1132568,0.0,0.0,0.0
2026-05-10 20:55:24.940,133,0.4797094800000001,0.24659023,1.1132568,0.0,0.0,0.0
2026-05-10 20:55:24.950,134,0.47970948,0.24659023,1.1132568,0.0,0.0,0.0
2026-05-10 20:55:24.960,135,0.4797094800000001,0.24659023,1.1132568,0.0,0.0,0.0
2026-05-10 20:55:24.970,136,0.47970948,0.24659023,1.1132568,0.0,0.0,0.0
2026-05-10 20:55:24.980,137,0.47970948,0.24659023,1.1132568,0.0,0.0,0.0
2026-05-10 20:55:24.990,138,0.47970948,0.24659023,1.1132568,0.0,0.0,0.0
2026-05-10 20:55:25.000,139,-1.3196254600000001,0.221460255,1.8928135,0.0,0.0,0.0
2026-05-10 20:55:25.010,140,-3.1189604,0.19633028,2.6723702,0.0,0.0,0.0
2026-05-10 20:55:25.020,141,-3.1189604,0.19633028,2.6723702,0.0,0.0,0.0
2026-05-10 20:55:25.030,142,-3.288578,0.19093272,2.5944955,0.0,0.0,0.0
2026-05-10 20:55:25.040,143,-3.288578,0.19093272,2.5944955,0.0,0.0,0.0
2026-05-10 20:55:25.050,144,-3.288578,0.19093272000000003,2.5944955,0.0,0.0,0.0
2026-05-10 20:55:25.060,145,-3.288578,0.19093272,2.5944955,0.0,0.0,0.0
2026-05-10 20:55:25.070,146,-3.3701375,0.0579052,2.4863455,0.0,0.0,0.0
2026-05-10 20:55:25.080,147,-3.3701375,0.0579052,2.4863455,0.0,0.0,0.0
2026-05-10 20:55:25.090,148,-3.3701375,0.0579052,2.4863455,0.0,0.0,0.0
2026-05-10 20:55:25.100,149,-3.3701375,0.0579052,2.4863455,0.0,0.0,0.0
2026-05-10 20:55:25.110,150,-3.3701375,0.0579052,2.4863455,0.0,0.0,0.0
2026-05-10 20:55:25.120,151,-3.3701375,0.0579052,2.4863455,0.0,0.0,0.0
2026-05-10 20:55:25.130,152,-3.3701375,0.0579052,2.4863455,0.0,0.0,0.0
2026-05-10 20:55:25.140,153,-3.3701375,0.0579052,2.4863455,0.0,0.0,0.0
2026-05-10 20:55:25.150,154,-3.3701375,0.0579052,2.4863455,0.0,0.0,0.0
2026-05-10 20:55:25.160,155,-3.3701375,0.0579052,2.4863455,0.0,0.0,0.0
2026-05-10 20:55:25.170,156,-3.3701375,0.0579052,2.4863455,0.0,0.0,0.0
2026-05-10 20:55:25.180,157,-3.3701375,0.0579052,2.4863455,0.0,0.0,0.0
2026-05-10 20:55:25.190,158,-3.3701375,0.0579052,2.4863455,0.0,0.0,0.0
2026-05-10 20:55:25.200,159,-3.3701375,0.0579052,2.4863455,0.0,0.0,0.0
2026-05-10 20:55:25.210,160,-3.3701375,0.0579052,2.4863455,0.0,0.0,0.0
2026-05-10 20:55:25.220,161,-3.3701375,0.0579052,2.4863455,0.0,0.0,0.0
2026-05-10 20:55:25.230,162,-3.3701375,0.0579052,2.4863455,0.0,0.0,0.0
2026-05-10 20:55:25.240,163,-3.3701375,0.0579052,2.4863455,0.0,0.0,0.0
2026-05-10 20:55:25.250,164,-3.3701375,0.0579052,2.4863455,0.0,0.0,0.0
2026-05-10 20:55:25.260,165,-3.2666359999999997,-0.022828746666666674,2.3964372333333332,0.0,0.0,0.0
2026-05-10 20:55:25.270,166,-3.059633,-0.18429664,2.2166207,0.0,0.0,0.0
2026-05-10 20:55:25.280,167,-3.059633,-0.18429664,2.2166207,0.0,0.0,0.0
2026-05-10 20:55:25.290,168,-3.059633,-0.18429664,2.2166207,0.0,0.0,0.0
2026-05-10 20:55:25.300,169,-3.059633,-0.18429664,2.2166207,0.0,0.0,0.0
2026-05-10 20:55:25.310,170,-3.059633,-0.18429664,2.2166207,0.0,0.0,0.0
2026-05-10 20:55:25.320,171,-3.059633,-0.18429664,2.2166207,0.0,0.0,0.0
2026-05-10 20:55:25.330,172,-3.059633,-0.18429664,2.2166207,0.0,0.0,0.0
2026-05-10 20:55:25.340,173,-3.059633,-0.18429664,2.2166207,0.0,0.0,0.0
2026-05-10 20:55:25.350,174,-3.059633,-0.18429664,2.2166207,0.0,0.0,0.0
2026-05-10 20:55:25.360,175,-3.059633,-0.18429664,2.2166207,0.0,0.0,0.0
2026-05-10 20:55:25.370,176,-3.0050993999999998,-0.20285169,2.1357338500000003,0.0,0.0,0.0
2026-05-10 20:55:25.380,177,-2.9505658,-0.22140674000000002,2.054847,0.0,0.0,0.0
2026-05-10 20:55:25.390,178,-2.9505658,-0.22140674000000002,2.054847,0.0,0.0,0.0
2026-05-10 20:55:25.400,179,-2.9505658,-0.22140674000000002,2.054847,0.0,0.0,0.0
2026-05-10 20:55:25.410,180,-2.9505658,-0.22140674,2.054847,0.0,0.0,0.0
2026-05-10 20:55:25.420,181,-2.9505658,-0.22140674000000002,2.054847,0.0,0.0,0.0
2026-05-10 20:55:25.430,182,-2.9108105,-0.2619725,1.7949083000000001,0.0,0.0,0.0
2026-05-10 20:55:25.440,183,-2.9108105,-0.2619725,1.7949083,0.0,0.0,0.0
2026-05-10 20:55:25.450,184,-2.9108105,-0.2619725,1.7949083000000001,0.0,0.0,0.0
2026-05-10 20:55:25.460,185,-2.9108105,-0.2619725,1.7949083,0.0,0.0,0.0
2026-05-10 20:55:25.470,186,-2.9108105,-0.2619725,1.7949083000000001,0.0,0.0,0.0
2026-05-10 20:55:25.480,187,-2.9108105,-0.2619725,1.7949083000000001,0.0,0.0,0.0
2026-05-10 20:55:25.490,188,-2.9108105,-0.2619725,1.7949083,0.0,0.0,0.0
2026-05-10 20:55:25.500,189,-2.9108105,-0.2619725,1.7949083000000001,0.0,0.0,0.0
2026-05-10 20:55:25.510,190,-2.9032671000000003,-0.3179052133333333,1.6948674333333333,0.0,0.0,0.0
2026-05-10 20:55:25.520,191,-2.8994954,-0.34587157,1.644847,0.0,0.0,0.0
2026-05-10 20:55:25.530,192,-2.8994954000000006,-0.3458715700000001,1.6448469999999997,0.0,0.0,0.0
2026-05-10 20:55:25.540,193,-2.876967366666667,-0.44186036,1.5562333666666666,0.0,0.0,0.0
2026-05-10 20:55:25.550,194,-2.8319113,-0.63383794,1.3790061,0.0,0.0,0.0
2026-05-10 20:55:25.560,195,-2.8305504,-0.6506931800000001,1.3790061,0.0,0.0,0.0
2026-05-10 20:55:25.570,196,-2.8278286,-0.68440366,1.3790061,0.0,0.0,0.0
2026-05-10 20:55:25.580,197,-2.8278286,-0.68440366,1.3790061,0.0,0.0,0.0
2026-05-10 20:55:25.590,198,-2.8278286,-0.68440366,1.3790061,0.0,0.0,0.0
2026-05-10 20:55:25.600,199,-2.8278286,-0.68440366,1.3790061,0.0,0.0,0.0
2026-05-10 20:55:25.610,200,-2.8278286,-0.68440366,1.3790061,0.0,0.0,0.0
2026-05-10 20:55:25.620,201,-2.630407733333333,-0.9743832866666667,1.4175994333333335,0.0,0.0,0.0
2026-05-10 20:55:25.630,202,-2.5316973,-1.1193731,1.4368961,0.0,0.0,0.0
2026-05-10 20:55:25.640,203,-2.5316973,-1.1193731,1.4368961,0.0,0.0,0.0
2026-05-10 20:55:25.650,204,-2.5316973,-1.1193731,1.4368961,0.0,0.0,0.0
2026-05-10 20:55:25.660,205,-2.5316973,-1.1193731,1.4368961,0.0,0.0,0.0
2026-05-10 20:55:25.670,206,-2.5316973,-1.1193731,1.4368961,0.0,0.0,0.0
2026-05-10 20:55:25.680,207,-2.5316973,-1.1193731,1.4368961,0.0,0.0,0.0
2026-05-10 20:55:25.690,208,-2.5316973,-1.1193731,1.4368961,0.0,0.0,0.0
2026-05-10 20:55:25.700,209,-2.5316973,-1.1193731,1.4368961,0.0,0.0,0.0
2026-05-10 20:55:25.710,210,-2.5316973,-1.1193731,1.4368961,0.0,0.0,0.0
2026-05-10 20:55:25.720,211,-2.5316973,-1.1193731,1.4368961,0.0,0.0,0.0
2026-05-10 20:55:25.730,212,-2.5316973,-1.1193731,1.4368961,0.0,0.0,0.0
2026-05-10 20:55:25.740,213,-2.5316973,-1.1193731,1.4368961,0.0,0.0,0.0
2026-05-10 20:55:25.750,214,-2.5316973,-1.1193731,1.4368961,0.0,0.0,0.0
2026-05-10 20:55:25.760,215,-2.3344903,-1.2770285666666668,1.4863048333333333,0.0,0.0,0.0
2026-05-10 20:55:25.770,216,-2.2358868,-1.3558563,1.5110092,0.0,0.0,0.0
2026-05-10 20:55:25.780,217,-2.2358868,-1.3558563,1.5110092,0.0,0.0,0.0
2026-05-10 20:55:25.790,218,-2.2358868,-1.3558563,1.5110092,0.0,0.0,0.0
2026-05-10 20:55:25.800,219,-2.2358868,-1.3558563,1.5110092,0.0,0.0,0.0
2026-05-10 20:55:25.810,220,-2.0548113999999997,-1.4459022,1.5006779000000001,0.0,0.0,0.0
2026-05-10 20:55:25.820,221,-1.5603822999999999,-1.6687054333333335,1.4431855333333334,0.0,0.0,0.0
2026-05-10 20:55:25.830,222,-1.2958257,-1.7541283,1.369526,0.0,0.0,0.0
2026-05-10 20:55:25.840,223,-1.2958257,-1.7541283000000003,1.3695259999999998,0.0,0.0,0.0
2026-05-10 20:55:25.850,224,-1.2958257,-1.7541283000000003,1.3695259999999998,0.0,0.0,0.0
2026-05-10 20:55:25.860,225,-0.8575229200000001,-1.9057339,1.3980352249999999,0.0,0.0,0.0
2026-05-10 20:55:25.870,226,-0.5584148733333333,-1.9230070666666668,1.3919113666666665,0.0,0.0,0.0
2026-05-10 20:55:25.880,227,-0.43833333,-1.9221253,1.3840979,0.0,0.0,0.0
2026-05-10 20:55:25.890,228,-0.43833333,-1.9221253,1.3840978999999998,0.0,0.0,0.0
2026-05-10 20:55:25.900,229,-0.43833333,-1.9221253,1.3840978999999998,0.0,0.0,0.0
2026-05-10 20:55:25.910,230,-0.43833333,-1.9221253,1.3840979,0.0,0.0,0.0
2026-05-10 20:55:25.920,231,-0.43833333,-1.9221253,1.3840978999999998,0.0,0.0,0.0
2026-05-10 20:55:25.930,232,-0.43833333,-1.9221253,1.3840978999999998,0.0,0.0,0.0
2026-05-10 20:55:25.940,233,-0.43833333,-1.9221253,1.3840978999999998,0.0,0.0,0.0
2026-05-10 20:55:25.950,234,-0.43833333,-1.9221253,1.3840978999999998,0.0,0.0,0.0
2026-05-10 20:55:25.960,235,-0.31879204333333333,-1.8947349000000002,1.3761468333333333,0.0,0.0,0.0
2026-05-10 20:55:25.970,236,-0.2590214,-1.8810397,1.3721713,0.0,0.0,0.0
2026-05-10 20:55:25.980,237,-0.2590214,-1.8810396999999999,1.3721713,0.0,0.0,0.0
2026-05-10 20:55:25.990,238,-0.2590214,-1.8810396999999999,1.3721713,0.0,0.0,0.0
2026-05-10 20:55:26.000,239,-0.2590214,-1.8810396999999999,1.3721713,0.0,0.0,0.0
2026-05-10 20:55:26.010,240,-0.2590214,-1.8810397,1.3721713,0.0,0.0,0.0
2026-05-10 20:55:26.020,241,-0.2590214,-1.8810396999999999,1.3721713,0.0,0.0,0.0
2026-05-10 20:55:26.030,242,-0.2590214,-1.8810396999999999,1.3721713,0.0,0.0,0.0
2026-05-10 20:55:26.040,243,-0.2590214,-1.8810397,1.3721713,0.0,0.0,0.0
2026-05-10 20:55:26.050,244,-0.24478593,-1.8705402333333334,1.3721050000000001,0.0,0.0,0.0
2026-05-10 20:55:26.060,245,-0.21631499,-1.8495413,1.3719724,0.0,0.0,0.0
2026-05-10 20:55:26.070,246,-0.21631499,-1.8495413,1.3719724,0.0,0.0,0.0
2026-05-10 20:55:26.080,247,-0.21631499,-1.8495413,1.3719724,0.0,0.0,0.0
2026-05-10 20:55:26.090,248,-0.282370025,-1.8232454,1.45377295,0.0,0.0,0.0
2026-05-10 20:55:26.100,249,-0.30438837,-1.8144801,1.4810398000000002,0.0,0.0,0.0
2026-05-10 20:55:26.110,250,-0.30438837,-1.8144801,1.4810398000000002,0.0,0.0,0.0
2026-05-10 20:55:26.120,251,-0.39541283,-1.7073394,1.4934709,0.0,0.0,0.0
2026-05-10 20:55:26.130,252,-0.39541283,-1.7073393999999997,1.4934709,0.0,0.0,0.0
2026-05-10 20:55:26.140,253,-0.39541283,-1.7073393999999997,1.4934709,0.0,0.0,0.0
2026-05-10 20:55:26.150,254,-0.39541283,-1.7073394,1.4934709,0.0,0.0,0.0
2026-05-10 20:55:26.160,255,-0.39541283,-1.7073393999999997,1.4934709,0.0,0.0,0.0
2026-05-10 20:55:26.170,256,-0.39541283,-1.7073394,1.4934709,0.0,0.0,0.0
2026-05-10 20:55:26.180,257,-0.39541283,-1.7073393999999997,1.4934709,0.0,0.0,0.0
2026-05-10 20:55:26.190,258,-0.39541283,-1.7073393999999997,1.4934709,0.0,0.0,0.0
2026-05-10 20:55:26.200,259,-0.39541283,-1.7073394,1.4934709,0.0,0.0,0.0
2026-05-10 20:55:26.210,260,-0.39541283,-1.7073393999999997,1.4934709,0.0,0.0,0.0
2026-05-10 20:55:26.220,261,-0.39541283,-1.7073393999999997,1.4934709,0.0,0.0,0.0
2026-05-10 20:55:26.230,262,-0.321353205,-1.68914365,1.3978057499999998,0.0,0.0,0.0
2026-05-10 20:55:26.240,263,-0.24729358,-1.6709479,1.3021406,0.0,0.0,0.0
2026-05-10 20:55:26.250,264,-0.136364677,-1.698241525,1.2960971000000001,0.0,0.0,0.0
2026-05-10 20:55:26.260,265,-0.099388376,-1.7073393999999997,1.2940826,0.0,0.0,0.0
2026-05-10 20:55:26.270,266,-0.099388376,-1.7073393999999997,1.2940826,0.0,0.0,0.0
2026-05-10 20:55:26.280,267,-0.099388376,-1.7073394,1.2940826,0.0,0.0,0.0
2026-05-10 20:55:26.290,268,-0.099388376,-1.7073394,1.2940826,0.0,0.0,0.0
2026-05-10 20:55:26.300,269,-0.099388376,-1.7073394,1.2940826,0.0,0.0,0.0
2026-05-10 20:55:26.310,270,-0.099388376,-1.7073393999999997,1.2940826,0.0,0.0,0.0
2026-05-10 20:55:26.320,271,-0.099388376,-1.7073393999999997,1.2940826,0.0,0.0,0.0
2026-05-10 20:55:26.330,272,-0.099388376,-1.7073394,1.2940826,0.0,0.0,0.0
2026-05-10 20:55:26.340,273,-0.099388376,-1.7073393999999997,1.2940826,0.0,0.0,0.0
2026-05-10 20:55:26.350,274,-0.00020641799999999988,-1.6923012,1.28847865,0.0,0.0,0.0
2026-05-10 20:55:26.360,275,0.09897554000000001,-1.677263,1.2828747,0.0,0.0,0.0
2026-05-10 20:55:26.370,276,0.09897554,-1.677263,1.2828747,0.0,0.0,0.0
2026-05-10 20:55:26.380,277,0.09897554,-1.677263,1.2828747,0.0,0.0,0.0
2026-05-10 20:55:26.390,278,0.09897554,-1.677263,1.2828747,0.0,0.0,0.0
2026-05-10 20:55:26.400,279,0.09897554,-1.677263,1.2828747,0.0,0.0,0.0
2026-05-10 20:55:26.410,280,0.09897554,-1.677263,1.2828747,0.0,0.0,0.0
2026-05-10 20:55:26.420,281,0.09897554000000001,-1.677263,1.2828747,0.0,0.0,0.0
2026-05-10 20:55:26.430,282,0.09897554000000001,-1.677263,1.2828747,0.0,0.0,0.0
2026-05-10 20:55:26.440,283,0.09897554000000001,-1.677263,1.2828747,0.0,0.0,0.0
2026-05-10 20:55:26.450,284,0.09897554000000001,-1.677263,1.2828747,0.0,0.0,0.0
2026-05-10 20:55:26.460,285,0.17325688333333333,-1.6267379999999998,1.2307187333333334,0.0,0.0,0.0
2026-05-10 20:55:26.470,286,0.32181957,-1.525688,1.1264068,0.0,0.0,0.0
2026-05-10 20:55:26.480,287,0.35371559999999996,-1.4925535000000003,0.9711468,0.0,0.0,0.0
2026-05-10 20:55:26.490,288,0.3537156,-1.4925535,0.9711468,0.0,0.0,0.0
2026-05-10 20:55:26.500,289,0.3537156,-1.4925535,0.9711468,0.0,0.0,0.0
2026-05-10 20:55:26.510,290,0.35371559999999996,-1.4925535000000003,0.9711468,0.0,0.0,0.0
2026-05-10 20:55:26.520,291,0.35371559999999996,-1.4925535000000003,0.9711468,0.0,0.0,0.0
2026-05-10 20:55:26.530,292,0.3537156,-1.4925535,0.9711468,0.0,0.0,0.0
2026-05-10 20:55:26.540,293,0.35371559999999996,-1.4925535000000003,0.9711468,0.0,0.0,0.0
2026-05-10 20:55:26.550,294,0.3537156,-1.4925535,0.9711468,0.0,0.0,0.0
2026-05-10 20:55:26.560,295,0.3537156,-1.4925535,0.9711468,0.0,0.0,0.0
2026-05-10 20:55:26.570,296,0.35371559999999996,-1.4925535000000003,0.9711468,0.0,0.0,0.0
2026-05-10 20:55:26.580,297,0.35371559999999996,-1.4925535000000003,0.9711468,0.0,0.0,0.0
2026-05-10 20:55:26.590,298,0.3537156,-1.4925535,0.9711468,0.0,0.0,0.0
2026-05-10 20:55:26.600,299,0.3906269,-1.4532110000000003,0.8986697,0.0,0.0,0.0
2026-05-10 20:55:26.610,300,0.3906269,-1.4532110000000003,0.8986697,0.0,0.0,0.0
2026-05-10 20:55:26.620,301,0.3906269,-1.4532110000000003,0.8986697,0.0,0.0,0.0
2026-05-10 20:55:26.630,302,0.3906269,-1.453211,0.8986697,0.0,0.0,0.0
2026-05-10 20:55:26.640,303,0.3906269,-1.4532110000000003,0.8986697,0.0,0.0,0.0
2026-05-10 20:55:26.650,304,0.3906269,-1.4532110000000003,0.8986697,0.0,0.0,0.0
2026-05-10 20:55:26.660,305,0.3906269,-1.453211,0.8986697,0.0,0.0,0.0
2026-05-10 20:55:26.670,306,0.3906269,-1.4532110000000003,0.8986697,0.0,0.0,0.0
2026-05-10 20:55:26.680,307,0.3906269,-1.453211,0.8986697,0.0,0.0,0.0
2026-05-10 20:55:26.690,308,0.3906269,-1.4532110000000003,0.8986697,0.0,0.0,0.0
2026-05-10 20:55:26.700,309,0.38746178,-1.3949083,0.8342507500000002,0.0,0.0,0.0
2026-05-10 20:55:26.710,310,0.38746178,-1.3949083,0.83425075,0.0,0.0,0.0
2026-05-10 20:55:26.720,311,0.38746178,-1.3949083,0.8342507500000002,0.0,0.0,0.0
2026-05-10 20:55:26.730,312,0.38746178,-1.3949083,0.83425075,0.0,0.0,0.0
2026-05-10 20:55:26.740,313,0.38746178,-1.3949083,0.8342507500000002,0.0,0.0,0.0
2026-05-10 20:55:26.750,314,0.38746178,-1.3949083,0.8342507500000002,0.0,0.0,0.0
2026-05-10 20:55:26.760,315,0.38746178,-1.3949083,0.83425075,0.0,0.0,0.0
2026-05-10 20:55:26.770,316,0.38746178,-1.3949083,0.8342507500000002,0.0,0.0,0.0
2026-05-10 20:55:26.780,317,0.40575689,-1.31289755,0.70978591,0.0,0.0,0.0
2026-05-10 20:55:26.790,318,0.42405199999999993,-1.2308868,0.58532107,0.0,0.0,0.0
2026-05-10 20:55:26.800,319,0.43584607999999997,-1.2095820333333334,0.5445463666666667,0.0,0.0,0.0
2026-05-10 20:55:26.810,320,0.45943424,-1.1669725,0.46299696,0.0,0.0,0.0
2026-05-10 20:55:26.820,321,0.45943424,-1.1669725,0.46299696000000007,0.0,0.0,0.0
2026-05-10 20:55:26.830,322,0.45943424,-1.1669725,0.46299696000000007,0.0,0.0,0.0
2026-05-10 20:55:26.840,323,0.45943424,-1.1669725,0.46299696,0.0,0.0,0.0
2026-05-10 20:55:26.850,324,0.44152394999999994,-1.1293578,0.3802599566666667,0.0,0.0,0.0
2026-05-10 20:55:26.860,325,0.3017278433333333,-0.99167176,-0.04970947666666666,0.0,0.0,0.0
2026-05-10 20:55:26.870,326,0.24974008,-0.96044344,-0.18195719,0.0,0.0,0.0
2026-05-10 20:55:26.880,327,0.24974008,-0.96044344,-0.18195719,0.0,0.0,0.0
2026-05-10 20:55:26.890,328,0.24974008,-0.96044344,-0.18195719,0.0,0.0,0.0
2026-05-10 20:55:26.900,329,0.7051936933333334,-0.9596279466666666,-0.3361569633333333,0.0,0.0,0.0
2026-05-10 20:55:26.910,330,0.96793575,-0.9074923500000001,-0.41656725,0.0,0.0,0.0
2026-05-10 20:55:26.920,331,1.002951,-0.8557644999999999,-0.41987764999999994,0.0,0.0,0.0
2026-05-10 20:55:26.930,332,1.002951,-0.8557644999999999,-0.41987764999999994,0.0,0.0,0.0
2026-05-10 20:55:26.940,333,1.002951,-0.8557644999999999,-0.41987764999999994,0.0,0.0,0.0
2026-05-10 20:55:26.950,334,1.0133486,-0.6520234333333333,-0.31984708333333334,0.0,0.0,0.0
2026-05-10 20:55:26.960,335,1.0185474,-0.5501529,-0.2698318,0.0,0.0,0.0
2026-05-10 20:55:26.970,336,1.0185474,-0.5501529,-0.2698318,0.0,0.0,0.0
2026-05-10 20:55:26.980,337,1.0185474,-0.5501529,-0.2698318,0.0,0.0,0.0
2026-05-10 20:55:26.990,338,1.2733894666666667,-0.03333331999999998,-1.0298012666666667,0.0,0.0,0.0
2026-05-10 20:55:27.000,339,1.4008104999999997,0.22507647,-1.4097859999999998,0.0,0.0,0.0
2026-05-10 20:55:27.010,340,1.4008104999999997,0.22507647,-1.4097859999999998,0.0,0.0,0.0
2026-05-10 20:55:27.020,341,1.3878645,-0.020830766666666667,-1.0410143133333334,0.0,0.0,0.0
2026-05-10 20:55:27.030,342,1.3619725,-0.51264524,-0.30347094,0.0,0.0,0.0
2026-05-10 20:55:27.040,343,1.3619725,-0.51264524,-0.30347094,0.0,0.0,0.0
2026-05-10 20:55:27.050,344,1.4188532,-0.49935777666666664,-0.36789499333333336,0.0,0.0,0.0
2026-05-10 20:55:27.060,345,1.5326145999999998,-0.47278285,-0.4967431,0.0,0.0,0.0
2026-05-10 20:55:27.070,346,1.5326145999999998,-0.47278285,-0.4967431,0.0,0.0,0.0
2026-05-10 20:55:27.080,347,1.5726835000000001,-0.4156727875,-0.74001145,0.0,0.0,0.0
2026-05-10 20:55:27.090,348,1.5860398,-0.3966361,-0.8211008999999999,0.0,0.0,0.0
2026-05-10 20:55:27.100,349,1.5860398,-0.3966361,-0.8211008999999999,0.0,0.0,0.0
2026-05-10 20:55:27.110,350,1.5860398,-0.3966361,-0.8211009,0.0,0.0,0.0
2026-05-10 20:55:27.120,351,1.5860398,-0.3966361,-0.8211008999999999,0.0,0.0,0.0
2026-05-10 20:55:27.130,352,1.4125382,-0.24659023,-1.2296636,0.0,0.0,0.0
2026-05-10 20:55:27.140,353,1.4125382,-0.24659023,-1.2296636,0.0,0.0,0.0
2026-05-10 20:55:27.150,354,1.4125382,-0.24659023,-1.2296636,0.0,0.0,0.0
2026-05-10 20:55:27.160,355,1.4125382,-0.24659023,-1.2296636,0.0,0.0,0.0
2026-05-10 20:55:27.170,356,1.4125382,-0.24659023,-1.2296636,0.0,0.0,0.0
2026-05-10 20:55:27.180,357,1.3381600333333334,-0.14043833666666666,-1.2316360666666668,0.0,0.0,0.0
2026-05-10 20:55:27.190,358,1.1894037,0.07186545,-1.235581,0.0,0.0,0.0
2026-05-10 20:55:27.200,359,1.1894037,0.07186545,-1.235581,0.0,0.0,0.0
2026-05-10 20:55:27.210,360,1.1894037,0.07186545,-1.235581,0.0,0.0,0.0
2026-05-10 20:55:27.220,361,1.1894037,0.07186545,-1.235581,0.0,0.0,0.0
2026-05-10 20:55:27.230,362,1.1894037,0.07186545,-1.235581,0.0,0.0,0.0
2026-05-10 20:55:27.240,363,1.1894037,0.07186545,-1.235581,0.0,0.0,0.0
2026-05-10 20:55:27.250,364,1.198501525,0.0918195775,-1.22393345,0.0,0.0,0.0
2026-05-10 20:55:27.260,365,1.225795,0.15168196,-1.1889908,0.0,0.0,0.0
2026-05-10 20:55:27.270,366,1.225795,0.15168196,-1.1889908,0.0,0.0,0.0
2026-05-10 20:55:27.280,367,1.225795,0.15168196,-1.1889908,0.0,0.0,0.0
2026-05-10 20:55:27.290,368,1.225795,0.15168196,-1.1889908,0.0,0.0,0.0
2026-05-10 20:55:27.300,369,1.225795,0.15168196,-1.1889908,0.0,0.0,0.0
2026-05-10 20:55:27.310,370,1.225795,0.15168196,-1.1889908,0.0,0.0,0.0
2026-05-10 20:55:27.320,371,1.225795,0.15168196,-1.1889908,0.0,0.0,0.0
2026-05-10 20:55:27.330,372,1.225795,0.15168196,-1.1889908,0.0,0.0,0.0
2026-05-10 20:55:27.340,373,1.225795,0.15168196,-1.1889908,0.0,0.0,0.0
2026-05-10 20:55:27.350,374,1.2900152,0.2058104,-1.261162,0.0,0.0,0.0
2026-05-10 20:55:27.360,375,1.3022782333333334,0.20988787333333334,-1.2872935333333333,0.0,0.0,0.0
2026-05-10 20:55:27.370,376,1.3268043,0.21804282,-1.3395566,0.0,0.0,0.0
2026-05-10 20:55:27.380,377,1.3268043,0.21804282,-1.3395566,0.0,0.0,0.0
2026-05-10 20:55:27.390,378,1.3268043,0.21804282,-1.3395566,0.0,0.0,0.0
2026-05-10 20:55:27.400,379,1.3268043,0.21804282,-1.3395566,0.0,0.0,0.0
2026-05-10 20:55:27.410,380,1.3268043,0.21804282,-1.3395566,0.0,0.0,0.0
2026-05-10 20:55:27.420,381,1.3268043,0.21804282,-1.3395566,0.0,0.0,0.0
2026-05-10 20:55:27.430,382,1.3268043,0.21804282,-1.3395566,0.0,0.0,0.0
2026-05-10 20:55:27.440,383,1.3268043,0.21804282,-1.3395566,0.0,0.0,0.0
2026-05-10 20:55:27.450,384,1.3268043,0.21804282,-1.3395566,0.0,0.0,0.0
2026-05-10 20:55:27.460,385,1.3268043,0.21804282,-1.3395566,0.0,0.0,0.0
2026-05-10 20:55:27.470,386,1.3268043,0.21804282,-1.3395566,0.0,0.0,0.0
2026-05-10 20:55:27.480,387,1.3268043,0.21804282,-1.3395566,0.0,0.0,0.0
2026-05-10 20:55:27.490,388,1.3268043,0.21804282,-1.3395566,0.0,0.0,0.0
2026-05-10 20:55:27.500,389,1.3268043,0.21804282,-1.3395566,0.0,0.0,0.0
2026-05-10 20:55:27.510,390,1.3268043,0.21804282,-1.3395566,0.0,0.0,0.0
2026-05-10 20:55:27.520,391,1.5391438,0.1919419,-1.4447554,0.0,0.0,0.0
2026-05-10 20:55:27.530,392,1.5391438,0.1919419,-1.4447554,0.0,0.0,0.0
2026-05-10 20:55:27.540,393,1.5391438,0.1919419,-1.4447554,0.0,0.0,0.0
2026-05-10 20:55:27.550,394,1.5889602666666667,0.09007645333333332,-1.4484862666666665,0.0,0.0,0.0
2026-05-10 20:55:27.560,395,1.6138685,0.03914373,-1.4503517,0.0,0.0,0.0
2026-05-10 20:55:27.570,396,1.6138685,0.03914373,-1.4503517,0.0,0.0,0.0
2026-05-10 20:55:27.580,397,1.6138685,0.03914373,-1.4503517,0.0,0.0,0.0
2026-05-10 20:55:27.590,398,1.6138685,0.03914373,-1.4503517,0.0,0.0,0.0
2026-05-10 20:55:27.600,399,1.1828797,-0.18355759666666663,-1.4778135,0.0,0.0,0.0
2026-05-10 20:55:27.610,400,0.9673853,-0.29490826,-1.4915444,0.0,0.0,0.0
2026-05-10 20:55:27.620,401,0.7391437,-0.47798166,-1.4839909,0.0,0.0,0.0
2026-05-10 20:55:27.630,402,0.7391437,-0.47798166,-1.4839909,0.0,0.0,0.0
2026-05-10 20:55:27.640,403,0.7336391499999999,-0.5608601025,-1.396536775,0.0,0.0,0.0
2026-05-10 20:55:27.650,404,0.7318043,-0.58848625,-1.3673854,0.0,0.0,0.0
2026-05-10 20:55:27.660,405,0.7318043,-0.58848625,-1.3673854,0.0,0.0,0.0
2026-05-10 20:55:27.670,406,0.7318043,-0.58848625,-1.3673854,0.0,0.0,0.0
2026-05-10 20:55:27.680,407,0.7318043,-0.58848625,-1.3673854,0.0,0.0,0.0
2026-05-10 20:55:27.690,408,0.8121253999999999,-0.7005046,-1.1220183,0.0,0.0,0.0
2026-05-10 20:55:27.700,409,0.8121254,-0.7005046,-1.1220183,0.0,0.0,0.0
2026-05-10 20:55:27.710,410,0.8121253999999999,-0.7005046,-1.1220183,0.0,0.0,0.0
2026-05-10 20:55:27.720,411,0.8121253999999999,-0.7005046,-1.1220183,0.0,0.0,0.0
2026-05-10 20:55:27.730,412,0.8121254,-0.7005046,-1.1220183,0.0,0.0,0.0
2026-05-10 20:55:27.740,413,0.9973548,-0.8340520000000001,-0.6827675699999999,0.0,0.0,0.0
2026-05-10 20:55:27.750,414,0.8279969333333334,-0.93734456,-0.42840469,0.0,0.0,0.0
2026-05-10 20:55:27.760,415,0.7856574666666667,-0.9631677000000001,-0.36481397,0.0,0.0,0.0
2026-05-10 20:55:27.770,416,0.743318,-0.98899084,-0.30122325,0.0,0.0,0.0
2026-05-10 20:55:27.780,417,0.743318,-0.98899084,-0.30122325,0.0,0.0,0.0
2026-05-10 20:55:27.790,418,0.743318,-0.98899084,-0.30122325,0.0,0.0,0.0
2026-05-10 20:55:27.800,419,0.6209939,-1.0322171,-0.21120796,0.0,0.0,0.0
2026-05-10 20:55:27.810,420,0.6209939,-1.0322171,-0.21120796,0.0,0.0,0.0
2026-05-10 20:55:27.820,421,0.6209939,-1.0322171,-0.21120796,0.0,0.0,0.0
2026-05-10 20:55:27.830,422,0.6209939,-1.0322171,-0.21120796,0.0,0.0,0.0
2026-05-10 20:55:27.840,423,0.6209939,-1.0322171,-0.21120796,0.0,0.0,0.0
2026-05-10 20:55:27.850,424,0.6209939,-1.0322171,-0.21120796,0.0,0.0,0.0
2026-05-10 20:55:27.860,425,0.6209939,-1.0322171,-0.21120796,0.0,0.0,0.0
2026-05-10 20:55:27.870,426,0.42915902,-1.1046941,-0.15974006,0.0,0.0,0.0
2026-05-10 20:55:27.880,427,0.42915902,-1.1046941,-0.15974006,0.0,0.0,0.0
2026-05-10 20:55:27.890,428,0.26323649,-1.1358511333333332,-0.14760958333333332,0.0,0.0,0.0
2026-05-10 20:55:27.900,429,-0.06860857,-1.1981652,-0.12334863,0.0,0.0,0.0
2026-05-10 20:55:27.910,430,-0.06860857,-1.1981652,-0.12334863,0.0,0.0,0.0
2026-05-10 20:55:27.920,431,-0.06860857,-1.1981652,-0.12334863,0.0,0.0,0.0
2026-05-10 20:55:27.930,432,-0.06860857,-1.1981652,-0.12334863,0.0,0.0,0.0
2026-05-10 20:55:27.940,433,-0.06860857,-1.1981652,-0.12334863,0.0,0.0,0.0
2026-05-10 20:55:27.950,434,-0.06860857,-1.1981652,-0.12334863,0.0,0.0,0.0
2026-05-10 20:55:27.960,435,-0.06860857,-1.1981652,-0.12334863,0.0,0.0,0.0
2026-05-10 20:55:27.970,436,-0.06860857,-1.1981652,-0.12334863,0.0,0.0,0.0
2026-05-10 20:55:27.980,437,-0.06860857,-1.1981652,-0.12334863,0.0,0.0,0.0
2026-05-10 20:55:27.990,438,-0.06860857,-1.1981652,-0.12334863,0.0,0.0,0.0
2026-05-10 20:55:28.000,439,-0.2038379233333333,-1.2528746,-0.11376657,0.0,0.0,0.0
2026-05-10 20:55:28.010,440,-0.2714526,-1.2802293,-0.10897554,0.0,0.0,0.0
2026-05-10 20:55:28.020,441,-0.39051478666666667,-1.3303109,-0.08586646666666665,0.0,0.0,0.0
2026-05-10 20:55:28.030,442,-0.45004588,-1.3553517,-0.07431193,0.0,0.0,0.0
2026-05-10 20:55:28.040,443,-0.45004588,-1.3553517,-0.07431193,0.0,0.0,0.0
2026-05-10 20:55:28.050,444,-0.45004588,-1.3553517,-0.07431193,0.0,0.0,0.0
2026-05-10 20:55:28.060,445,-0.45004588,-1.3553517,-0.07431193,0.0,0.0,0.0
2026-05-10 20:55:28.070,446,-0.45004588,-1.3553517,-0.07431193,0.0,0.0,0.0
2026-05-10 20:55:28.080,447,-0.6053364066666667,-1.3875637,0.010091740666666668,0.0,0.0,0.0
2026-05-10 20:55:28.090,448,-0.68298167,-1.4036697,0.052293576,0.0,0.0,0.0
2026-05-10 20:55:28.100,449,-0.6829816699999999,-1.4036697,0.052293576,0.0,0.0,0.0
2026-05-10 20:55:28.110,450,-0.6829816699999999,-1.4036697,0.052293576,0.0,0.0,0.0
2026-05-10 20:55:28.120,451,-0.6829816699999999,-1.4036697,0.052293576,0.0,0.0,0.0
2026-05-10 20:55:28.130,452,-0.6829816699999999,-1.4036697,0.052293576,0.0,0.0,0.0
2026-05-10 20:55:28.140,453,-0.6829816699999999,-1.4036697,0.052293576,0.0,0.0,0.0
2026-05-10 20:55:28.150,454,-0.68298167,-1.4036697,0.052293576,0.0,0.0,0.0
2026-05-10 20:55:28.160,455,-0.6829816699999999,-1.4036697,0.052293576,0.0,0.0,0.0
2026-05-10 20:55:28.170,456,-0.70778288,-1.4296279333333333,0.13013760733333332,0.0,0.0,0.0
2026-05-10 20:55:28.180,457,-0.82487005,-1.51166665,0.351016805,0.0,0.0,0.0
2026-05-10 20:55:28.190,458,-0.8923548,-1.5417889,0.41620794,0.0,0.0,0.0
2026-05-10 20:55:28.200,459,-0.8923548,-1.5417889,0.41620794,0.0,0.0,0.0
2026-05-10 20:55:28.210,460,-0.8923548,-1.5417889,0.41620794,0.0,0.0,0.0
2026-05-10 20:55:28.220,461,-1.1578695333333333,-1.5714219666666667,0.48715598000000004,0.0,0.0,0.0
2026-05-10 20:55:28.230,462,-1.2906269,-1.5862385,0.52263,0.0,0.0,0.0
2026-05-10 20:55:28.240,463,-1.2906269,-1.5862385,0.52263,0.0,0.0,0.0
2026-05-10 20:55:28.250,464,-1.2906269,-1.5862385,0.52263,0.0,0.0,0.0
2026-05-10 20:55:28.260,465,-1.3179205,-1.590087875,0.533000785,0.0,0.0,0.0
2026-05-10 20:55:28.270,466,-1.3998013,-1.601636,0.56411314,0.0,0.0,0.0
2026-05-10 20:55:28.280,467,-1.3998013,-1.601636,0.56411314,0.0,0.0,0.0
2026-05-10 20:55:28.290,468,-1.3998013,-1.601636,0.56411314,0.0,0.0,0.0
2026-05-10 20:55:28.300,469,-1.516416966666667,-1.5807695333333331,0.6309837133333334,0.0,0.0,0.0
2026-05-10 20:55:28.310,470,-1.5747248,-1.5703363,0.664419,0.0,0.0,0.0
2026-05-10 20:55:28.320,471,-1.5747248,-1.5703363,0.664419,0.0,0.0,0.0
2026-05-10 20:55:28.330,472,-1.5747248,-1.5703363,0.664419,0.0,0.0,0.0
2026-05-10 20:55:28.340,473,-1.7541283000000003,-1.4908258000000003,0.8093730999999998,0.0,0.0,0.0
2026-05-10 20:55:28.350,474,-1.7541283,-1.4908258,0.8093731,0.0,0.0,0.0
2026-05-10 20:55:28.360,475,-1.7541283000000003,-1.4908258000000003,0.8093730999999998,0.0,0.0,0.0
2026-05-10 20:55:28.370,476,-1.7541283000000003,-1.4908258000000003,0.8093730999999998,0.0,0.0,0.0
2026-05-10 20:55:28.380,477,-1.9840978,-1.3697248,0.9418961,0.0,0.0,0.0
2026-05-10 20:55:28.390,478,-1.9840978,-1.3697248,0.9418961,0.0,0.0,0.0
2026-05-10 20:55:28.400,479,-1.9840978,-1.3697248,0.9418961,0.0,0.0,0.0
2026-05-10 20:55:28.410,480,-2.0395526999999998,-1.3087653,0.97449165,0.0,0.0,0.0
2026-05-10 20:55:28.420,481,-2.2059174,-1.1258868,1.0722783,0.0,0.0,0.0
2026-05-10 20:55:28.430,482,-2.2059174,-1.1258868,1.0722783,0.0,0.0,0.0
2026-05-10 20:55:28.440,483,-2.2059174,-1.1258868,1.0722783,0.0,0.0,0.0
2026-05-10 20:55:28.450,484,-2.2059174,-1.1258868,1.0722783,0.0,0.0,0.0
2026-05-10 20:55:28.460,485,-2.2059174,-1.1258868,1.0722783,0.0,0.0,0.0
2026-05-10 20:55:28.470,486,-2.2059174,-1.1258868,1.0722783,0.0,0.0,0.0
2026-05-10 20:55:28.480,487,-2.2059174,-1.1258868,1.0722783,0.0,0.0,0.0
2026-05-10 20:55:28.490,488,-2.2059174,-1.1258868,1.0722783,0.0,0.0,0.0
2026-05-10 20:55:28.500,489,-2.2059174,-1.1258868,1.0722783,0.0,0.0,0.0
2026-05-10 20:55:28.510,490,-2.2042864666666664,-1.0585474,1.0714627666666667,0.0,0.0,0.0
2026-05-10 20:55:28.520,491,-2.203471,-1.0248777,1.071055,0.0,0.0,0.0
2026-05-10 20:55:28.530,492,-2.203471,-1.0248777,1.071055,0.0,0.0,0.0
2026-05-10 20:55:28.540,493,-2.3694138666666666,-0.8000968466666668,0.97019879,0.0,0.0,0.0
2026-05-10 20:55:28.550,494,-2.4313915,-0.75249237,0.95749235,0.0,0.0,0.0
2026-05-10 20:55:28.560,495,-2.4313915,-0.75249237,0.95749235,0.0,0.0,0.0
2026-05-10 20:55:28.570,496,-2.5316973,-0.70954638,0.9898725666666666,0.0,0.0,0.0
2026-05-10 20:55:28.580,497,-2.7323089,-0.6236544,1.054633,0.0,0.0,0.0
2026-05-10 20:55:28.590,498,-2.7323089,-0.6236544,1.054633,0.0,0.0,0.0
2026-05-10 20:55:28.600,499,-2.7323089,-0.6236544,1.054633,0.0,0.0,0.0
2026-05-10 20:55:28.610,500,-2.791942,-0.5846024,1.1388379,0.0,0.0,0.0
2026-05-10 20:55:28.620,501,-2.791942,-0.5846024,1.1388379,0.0,0.0,0.0
2026-05-10 20:55:28.630,502,-2.791942,-0.5846024,1.1388379,0.0,0.0,0.0
2026-05-10 20:55:28.640,503,-2.791942,-0.5846024,1.1388379,0.0,0.0,0.0
2026-05-10 20:55:28.650,504,-2.747905266666667,-0.5556217833333333,1.1419316666666666,0.0,0.0,0.0
2026-05-10 20:55:28.660,505,-2.6598318,-0.49766055,1.1481192,0.0,0.0,0.0
2026-05-10 20:55:28.670,506,-2.6598318,-0.49766055,1.1481192,0.0,0.0,0.0
2026-05-10 20:55:28.680,507,-2.6598318,-0.49766055,1.1481192,0.0,0.0,0.0
2026-05-10 20:55:28.690,508,-2.6598318,-0.49766055,1.1481192,0.0,0.0,0.0
2026-05-10 20:55:28.700,509,-2.6598318,-0.49766055,1.1481192,0.0,0.0,0.0
2026-05-10 20:55:28.710,510,-2.6598318,-0.49766055,1.1481192,0.0,0.0,0.0
2026-05-10 20:55:28.720,511,-2.4519878,-0.17356269333333332,1.1078797666666667,0.0,0.0,0.0
2026-05-10 20:55:28.730,512,-2.6162615000000002,-0.083639145,1.11437315,0.0,0.0,0.0
2026-05-10 20:55:28.740,513,-2.9036696,0.08940367,1.130581,0.0,0.0,0.0
2026-05-10 20:55:28.750,514,-2.9456676,0.12294087666666668,1.0535167666666667,0.0,0.0,0.0
2026-05-10 20:55:28.760,515,-2.99852445,0.226865445,0.553058065,0.0,0.0,0.0
2026-05-10 20:55:28.770,516,-2.9673853,0.2637156,0.20672783000000003,0.0,0.0,0.0
2026-05-10 20:55:28.780,517,-2.9673853,0.2637156,0.20672783000000003,0.0,0.0,0.0
2026-05-10 20:55:28.790,518,-2.9673853,0.2637156,0.20672783,0.0,0.0,0.0
2026-05-10 20:55:28.800,519,-2.9673853,0.2637156,0.20672783000000003,0.0,0.0,0.0
2026-05-10 20:55:28.810,520,-2.9673853,0.2637156,0.20672783000000003,0.0,0.0,0.0
2026-05-10 20:55:28.820,521,-2.9673853,0.2637156,0.20672783000000003,0.0,0.0,0.0
2026-05-10 20:55:28.830,522,-2.8128975,0.2802523,0.1146292075,0.0,0.0,0.0
2026-05-10 20:55:28.840,523,-2.3494341,0.3298624,-0.16166666,0.0,0.0,0.0
2026-05-10 20:55:28.850,524,-2.3494341,0.3298624,-0.16166666,0.0,0.0,0.0
2026-05-10 20:55:28.860,525,-2.3494341,0.3298624,-0.16166666,0.0,0.0,0.0
2026-05-10 20:55:28.870,526,-2.3494341,0.3298624,-0.16166666,0.0,0.0,0.0
2026-05-10 20:55:28.880,527,-2.3494341,0.3298624,-0.16166666,0.0,0.0,0.0
2026-05-10 20:55:28.890,528,-2.3494341,0.3298624,-0.16166666,0.0,0.0,0.0
2026-05-10 20:55:28.900,529,-2.3494341,0.3298624,-0.16166666,0.0,0.0,0.0
2026-05-10 20:55:28.910,530,-2.3494341,0.3298624,-0.16166666,0.0,0.0,0.0
2026-05-10 20:55:28.920,531,-2.3494341,0.3298624,-0.16166666,0.0,0.0,0.0
2026-05-10 20:55:28.930,532,-2.3494341,0.3298624,-0.16166666,0.0,0.0,0.0
2026-05-10 20:55:28.940,533,-2.3494341,0.3298624,-0.16166666,0.0,0.0,0.0
2026-05-10 20:55:28.950,534,-2.3494341,0.3298624,-0.16166666,0.0,0.0,0.0
2026-05-10 20:55:28.960,535,-2.3494341,0.3298624,-0.16166666,0.0,0.0,0.0
2026-05-10 20:55:28.970,536,-2.3494341,0.3298624,-0.16166666,0.0,0.0,0.0
2026-05-10 20:55:28.980,537,-2.2275177,0.35147298666666665,-0.14298164666666666,0.0,0.0,0.0
2026-05-10 20:55:28.990,538,-2.1665595,0.36227828,-0.13363914,0.0,0.0,0.0
2026-05-10 20:55:29.000,539,-2.1665595,0.36227828,-0.13363914,0.0,0.0,0.0
2026-05-10 20:55:29.010,540,-2.1665595,0.36227828,-0.13363914,0.0,0.0,0.0
2026-05-10 20:55:29.020,541,-2.11640665,-0.05578746499999998,0.08417432,0.0,0.0,0.0
2026-05-10 20:55:29.030,542,-2.0662538,-0.47385320999999997,0.30198778,0.0,0.0,0.0
2026-05-10 20:55:29.040,543,-2.0161009500000002,-0.891918955,0.5198012399999999,0.0,0.0,0.0
2026-05-10 20:55:29.050,544,-1.9659481,-1.3099847,0.7376147,0.0,0.0,0.0
2026-05-10 20:55:29.060,545,-1.9659481,-1.3099847,0.7376147,0.0,0.0,0.0
2026-05-10 20:55:29.070,546,-1.9659481,-1.3099847,0.7376147,0.0,0.0,0.0
2026-05-10 20:55:29.080,547,-1.9659481,-1.3099847,0.7376147,0.0,0.0,0.0
2026-05-10 20:55:29.090,548,-1.9659481,-1.3099847,0.7376147,0.0,0.0,0.0
2026-05-10 20:55:29.100,549,-1.9659481,-1.3099847,0.7376147,0.0,0.0,0.0
2026-05-10 20:55:29.110,550,-1.9659481,-1.3099847,0.7376147,0.0,0.0,0.0
2026-05-10 20:55:29.120,551,-1.9659481,-1.3099847,0.7376147,0.0,0.0,0.0
2026-05-10 20:55:29.130,552,-1.9510704,-1.3994954,0.80377674,0.0,0.0,0.0
2026-05-10 20:55:29.140,553,-1.9510704,-1.3994954,0.80377674,0.0,0.0,0.0
2026-05-10 20:55:29.150,554,-1.9071356000000002,-1.4216462666666665,0.8229714433333334,0.0,0.0,0.0
2026-05-10 20:55:29.160,555,-1.819266,-1.465948,0.86136085,0.0,0.0,0.0
2026-05-10 20:55:29.170,556,-1.819266,-1.465948,0.86136085,0.0,0.0,0.0
2026-05-10 20:55:29.180,557,-1.6960244,-1.4699235333333334,0.8664933866666665,0.0,0.0,0.0
2026-05-10 20:55:29.190,558,-1.4495412,-1.4778746,0.87675846,0.0,0.0,0.0
2026-05-10 20:55:29.200,559,-1.4495411999999999,-1.4778746,0.87675846,0.0,0.0,0.0
2026-05-10 20:55:29.210,560,-1.4495411999999999,-1.4778746,0.87675846,0.0,0.0,0.0
2026-05-10 20:55:29.220,561,-1.4495412,-1.4778746,0.87675846,0.0,0.0,0.0
2026-05-10 20:55:29.230,562,-1.4495411999999999,-1.4778746,0.87675846,0.0,0.0,0.0
2026-05-10 20:55:29.240,563,-1.3272171,-1.4820642,0.9396484,0.0,0.0,0.0
2026-05-10 20:55:29.250,564,-1.3272171,-1.4820642,0.9396483999999999,0.0,0.0,0.0
2026-05-10 20:55:29.260,565,-1.3272171,-1.4820642,0.9396483999999999,0.0,0.0,0.0
2026-05-10 20:55:29.270,566,-1.3272171,-1.4820642,0.9396484,0.0,0.0,0.0
2026-05-10 20:55:29.280,567,-1.3272171,-1.4820642,0.9396483999999999,0.0,0.0,0.0
2026-05-10 20:55:29.290,568,-1.3272171,-1.4820642,0.9396483999999999,0.0,0.0,0.0
2026-05-10 20:55:29.300,569,-1.3272171,-1.4820642,0.9396484,0.0,0.0,0.0
2026-05-10 20:55:29.310,570,-1.3272171,-1.4820642,0.9396483999999999,0.0,0.0,0.0
2026-05-10 20:55:29.320,571,-1.0247209275,-1.4357339,0.8750459325000001,0.0,0.0,0.0
2026-05-10 20:55:29.330,572,-0.11723241,-1.296743,0.68123853,0.0,0.0,0.0
2026-05-10 20:55:29.340,573,-0.11723241,-1.296743,0.68123853,0.0,0.0,0.0
2026-05-10 20:55:29.350,574,-0.11723241,-1.296743,0.68123853,0.0,0.0,0.0
2026-05-10 20:55:29.360,575,-0.11723241,-1.296743,0.68123853,0.0,0.0,0.0
2026-05-10 20:55:29.370,576,-0.8615749366666666,-1.4251121333333332,0.89843531,0.0,0.0,0.0
2026-05-10 20:55:29.380,577,-1.1744648999999998,-1.4727294,1.0436774500000001,0.0,0.0,0.0
2026-05-10 20:55:29.390,578,-1.1151836,-1.4561621,1.0803212,0.0,0.0,0.0
2026-05-10 20:55:29.400,579,-1.1151836,-1.4561621,1.0803212,0.0,0.0,0.0
2026-05-10 20:55:29.410,580,-1.1151836,-1.4561621,1.0803212,0.0,0.0,0.0
2026-05-10 20:55:29.420,581,-1.1151836,-1.4561621,1.0803212,0.0,0.0,0.0
2026-05-10 20:55:29.430,582,-1.1151836,-1.4561621,1.0803212,0.0,0.0,0.0
2026-05-10 20:55:29.440,583,-1.1151836,-1.4561621,1.0803212,0.0,0.0,0.0
2026-05-10 20:55:29.450,584,-1.1151836,-1.4561621,1.0803212,0.0,0.0,0.0
2026-05-10 20:55:29.460,585,-1.1151836,-1.4561621,1.0803212,0.0,0.0,0.0
2026-05-10 20:55:29.470,586,-1.1151836,-1.4561621,1.0803212,0.0,0.0,0.0
2026-05-10 20:55:29.480,587,-0.9538226,-1.4481193,1.0829816,0.0,0.0,0.0
2026-05-10 20:55:29.490,588,-0.9538226,-1.4481193,1.0829816,0.0,0.0,0.0
2026-05-10 20:55:29.500,589,-0.9538226,-1.4481193,1.0829816,0.0,0.0,0.0
2026-05-10 20:55:29.510,590,-0.53282875,-1.4570795,0.97655964,0.0,0.0,0.0
2026-05-10 20:55:29.520,591,-0.53282875,-1.4570795,0.97655964,0.0,0.0,0.0
2026-05-10 20:55:29.530,592,-0.53282875,-1.4570795,0.97655964,0.0,0.0,0.0
2026-05-10 20:55:29.540,593,-0.53282875,-1.4570795,0.97655964,0.0,0.0,0.0
2026-05-10 20:55:29.550,594,-0.53282875,-1.4570795,0.97655964,0.0,0.0,0.0
2026-05-10 20:55:29.560,595,-0.53282875,-1.4570795,0.97655964,0.0,0.0,0.0
2026-05-10 20:55:29.570,596,-0.44838939999999994,-1.4425382333333332,0.9337767766666666,0.0,0.0,0.0
2026-05-10 20:55:29.580,597,-0.2795107,-1.4134557,0.8482110500000001,0.0,0.0,0.0
2026-05-10 20:55:29.590,598,-0.2795107,-1.4134557,0.84821105,0.0,0.0,0.0
2026-05-10 20:55:29.600,599,-0.2795107,-1.4134557,0.8482110500000001,0.0,0.0,0.0
2026-05-10 20:55:29.610,600,-0.19408766,-1.3743832999999999,0.79642715,0.0,0.0,0.0
2026-05-10 20:55:29.620,601,-0.15137614,-1.3548471,0.7705352,0.0,0.0,0.0
2026-05-10 20:55:29.630,602,-0.15137614,-1.3548471,0.7705352,0.0,0.0,0.0
2026-05-10 20:55:29.640,603,-0.15137614,-1.3548471,0.7705352,0.0,0.0,0.0
2026-05-10 20:55:29.650,604,-0.15137614,-1.3548471,0.7705352,0.0,0.0,0.0
2026-05-10 20:55:29.660,605,-0.15137614,-1.3548471,0.7705352,0.0,0.0,0.0
2026-05-10 20:55:29.670,606,-0.15137614,-1.3548471,0.7705352,0.0,0.0,0.0
2026-05-10 20:55:29.680,607,-0.15137614,-1.3548471,0.7705352,0.0,0.0,0.0
2026-05-10 20:55:29.690,608,-0.15137614,-1.3548471,0.7705352,0.0,0.0,0.0
2026-05-10 20:55:29.700,609,-0.14912845,-1.2569878,0.60214067,0.0,0.0,0.0
2026-05-10 20:55:29.710,610,-0.14912845,-1.2569878,0.60214067,0.0,0.0,0.0
2026-05-10 20:55:29.720,611,-0.14912845,-1.2569878,0.60214067,0.0,0.0,0.0
2026-05-10 20:55:29.730,612,-0.14912845,-1.2569878,0.60214067,0.0,0.0,0.0
2026-05-10 20:55:29.740,613,-0.14912845,-1.2569878,0.60214067,0.0,0.0,0.0
2026-05-10 20:55:29.750,614,-0.14912845,-1.2569878,0.60214067,0.0,0.0,0.0
2026-05-10 20:55:29.760,615,-0.14912845,-1.2569878,0.60214067,0.0,0.0,0.0
2026-05-10 20:55:29.770,616,-0.14912845,-1.2569878,0.60214067,0.0,0.0,0.0
2026-05-10 20:55:29.780,617,-0.14912845,-1.2569878,0.60214067,0.0,0.0,0.0
2026-05-10 20:55:29.790,618,-0.14912845,-1.2569878,0.60214067,0.0,0.0,0.0
2026-05-10 20:55:29.800,619,-0.11067661,-1.1487997,0.5199502925,0.0,0.0,0.0
2026-05-10 20:55:29.810,620,-0.09785932999999998,-1.112737,0.4925534999999999,0.0,0.0,0.0
2026-05-10 20:55:29.820,621,-0.09785932999999998,-1.112737,0.4925534999999999,0.0,0.0,0.0
2026-05-10 20:55:29.830,622,-0.09785932999999998,-1.112737,0.4925534999999999,0.0,0.0,0.0
2026-05-10 20:55:29.840,623,-0.09785932999999998,-1.112737,0.4925534999999999,0.0,0.0,0.0
2026-05-10 20:55:29.850,624,-0.09785932999999998,-1.112737,0.4925534999999999,0.0,0.0,0.0
2026-05-10 20:55:29.860,625,-0.09785933,-1.112737,0.4925535,0.0,0.0,0.0
2026-05-10 20:55:29.870,626,-0.09785932999999998,-1.112737,0.4925534999999999,0.0,0.0,0.0
2026-05-10 20:55:29.880,627,-0.006422017999999999,-1.0754281,0.45524463,0.0,0.0,0.0
2026-05-10 20:55:29.890,628,-0.006422018,-1.0754281,0.45524463,0.0,0.0,0.0
2026-05-10 20:55:29.900,629,-0.006422017999999999,-1.0754281,0.45524463,0.0,0.0,0.0
2026-05-10 20:55:29.910,630,-0.006422017999999999,-1.0754281,0.45524463,0.0,0.0,0.0
2026-05-10 20:55:29.920,631,-0.006422018,-1.0754281,0.45524463,0.0,0.0,0.0
2026-05-10 20:55:29.930,632,0.12680428,-1.0351682,0.3913302699999999,0.0,0.0,0.0
2026-05-10 20:55:29.940,633,0.12680428,-1.0351682,0.3913302699999999,0.0,0.0,0.0
2026-05-10 20:55:29.950,634,0.12680428,-1.0351682,0.39133027,0.0,0.0,0.0
2026-05-10 20:55:29.960,635,0.19170743999999998,-1.0079816666666666,0.3527369966666667,0.0,0.0,0.0
2026-05-10 20:55:29.970,636,0.3455351666666666,-0.9631346,0.2645922533333333,0.0,0.0,0.0
2026-05-10 20:55:29.980,637,0.40622324,-0.9475077,0.2301682,0.0,0.0,0.0
2026-05-10 20:55:29.990,638,0.40622323999999993,-0.9475077,0.23016819999999996,0.0,0.0,0.0
2026-05-10 20:55:30.000,639,0.40622324,-0.9475077,0.2301682,0.0,0.0,0.0
2026-05-10 20:55:30.010,640,0.40622323999999993,-0.9475077,0.23016819999999996,0.0,0.0,0.0
2026-05-10 20:55:30.020,641,0.40622323999999993,-0.9475077,0.23016819999999996,0.0,0.0,0.0
2026-05-10 20:55:30.030,642,0.40622323999999993,-0.9475077,0.23016819999999996,0.0,0.0,0.0
2026-05-10 20:55:30.040,643,0.40622324,-0.9475077,0.2301682,0.0,0.0,0.0
2026-05-10 20:55:30.050,644,0.40622323999999993,-0.9475077,0.23016819999999996,0.0,0.0,0.0
2026-05-10 20:55:30.060,645,0.40622323999999993,-0.9475077,0.23016819999999996,0.0,0.0,0.0
2026-05-10 20:55:30.070,646,0.42642966,-0.9384862749999999,0.2221941925,0.0,0.0,0.0
2026-05-10 20:55:30.080,647,0.48704892000000005,-0.911422,0.19827217,0.0,0.0,0.0
2026-05-10 20:55:30.090,648,0.48704892000000005,-0.911422,0.19827217,0.0,0.0,0.0
2026-05-10 20:55:30.100,649,0.48704892000000005,-0.911422,0.19827217,0.0,0.0,0.0
2026-05-10 20:55:30.110,650,0.48704892000000005,-0.911422,0.19827217,0.0,0.0,0.0
2026-05-10 20:55:30.120,651,0.49996431333333335,-0.897421,0.16751783666666667,0.0,0.0,0.0
2026-05-10 20:55:30.130,652,0.5257951,-0.869419,0.10600917,0.0,0.0,0.0
2026-05-10 20:55:30.140,653,0.5257951,-0.869419,0.10600917,0.0,0.0,0.0
2026-05-10 20:55:30.150,654,0.5257951,-0.869419,0.10600917,0.0,0.0,0.0
2026-05-10 20:55:30.160,655,0.5257951,-0.869419,0.10600917,0.0,0.0,0.0
2026-05-10 20:55:30.170,656,0.5257951,-0.869419,0.10600917,0.0,0.0,0.0
2026-05-10 20:55:30.180,657,0.5257951,-0.869419,0.10600917,0.0,0.0,0.0
2026-05-10 20:55:30.190,658,0.5257951,-0.869419,0.10600917,0.0,0.0,0.0
2026-05-10 20:55:30.200,659,0.5124668933333334,-0.7234403666666666,-0.16239042333333334,0.0,0.0,0.0
2026-05-10 20:55:30.210,660,0.5107034,-0.7209939,-0.18481651,0.0,0.0,0.0
2026-05-10 20:55:30.220,661,0.5107034,-0.7209939,-0.18481651,0.0,0.0,0.0
2026-05-10 20:55:30.230,662,0.5374770866666667,-0.6885474,-0.25511722666666664,0.0,0.0,0.0
2026-05-10 20:55:30.240,663,0.6764474866666667,-0.5907594,-0.39829765333333333,0.0,0.0,0.0
2026-05-10 20:55:30.250,664,0.719159,-0.5743119,-0.39958715000000006,0.0,0.0,0.0
2026-05-10 20:55:30.260,665,0.719159,-0.5743119,-0.39958715000000006,0.0,0.0,0.0
2026-05-10 20:55:30.270,666,0.719159,-0.5743119,-0.39958715,0.0,0.0,0.0
2026-05-10 20:55:30.280,667,0.719159,-0.5743119,-0.39958715000000006,0.0,0.0,0.0
2026-05-10 20:55:30.290,668,0.719159,-0.5743119,-0.39958715000000006,0.0,0.0,0.0
2026-05-10 20:55:30.300,669,0.719159,-0.5743119,-0.39958715000000006,0.0,0.0,0.0
2026-05-10 20:55:30.310,670,0.72983944,-0.57247705,-0.41839449500000003,0.0,0.0,0.0
2026-05-10 20:55:30.320,671,0.76188076,-0.5669725,-0.47481653,0.0,0.0,0.0
2026-05-10 20:55:30.330,672,0.76188076,-0.5669725,-0.47481653,0.0,0.0,0.0
2026-05-10 20:55:30.340,673,0.76188076,-0.5669725,-0.47481653,0.0,0.0,0.0
2026-05-10 20:55:30.350,674,0.8924923866666666,-0.5403364133333333,-0.52802751,0.0,0.0,0.0
2026-05-10 20:55:30.360,675,0.9577982,-0.52701837,-0.554633,0.0,0.0,0.0
2026-05-10 20:55:30.370,676,0.9577982,-0.52701837,-0.554633,0.0,0.0,0.0
2026-05-10 20:55:30.380,677,0.9577982,-0.52701837,-0.554633,0.0,0.0,0.0
2026-05-10 20:55:30.390,678,0.9577982,-0.52701837,-0.554633,0.0,0.0,0.0
2026-05-10 20:55:30.400,679,0.9577982,-0.52701837,-0.554633,0.0,0.0,0.0
2026-05-10 20:55:30.410,680,0.9903517333333335,-0.5014628133333333,-0.5707390333333334,0.0,0.0,0.0
2026-05-10 20:55:30.420,681,1.0554588,-0.4503517,-0.6029511,0.0,0.0,0.0
2026-05-10 20:55:30.430,682,1.0584812333333333,-0.4385627,-0.6080836199999999,0.0,0.0,0.0
2026-05-10 20:55:30.440,683,1.0645261,-0.4149847,-0.61834866,0.0,0.0,0.0
2026-05-10 20:55:30.450,684,1.0645261,-0.4149847,-0.61834866,0.0,0.0,0.0
2026-05-10 20:55:30.460,685,1.0645261,-0.4149847,-0.61834866,0.0,0.0,0.0
2026-05-10 20:55:30.470,686,1.0645261,-0.4149847,-0.61834866,0.0,0.0,0.0
2026-05-10 20:55:30.480,687,1.0399287,-0.3754332333333334,-0.6456676866666666,0.0,0.0,0.0
2026-05-10 20:55:30.490,688,1.02763,-0.3556575,-0.6593272,0.0,0.0,0.0
2026-05-10 20:55:30.500,689,1.02763,-0.3556575,-0.6593272,0.0,0.0,0.0
2026-05-10 20:55:30.510,690,1.02763,-0.3556575,-0.6593272,0.0,0.0,0.0
2026-05-10 20:55:30.520,691,1.02763,-0.3556575,-0.6593272,0.0,0.0,0.0
2026-05-10 20:55:30.530,692,1.008262,-0.3104994966666667,-0.6822629666666667,0.0,0.0,0.0
2026-05-10 20:55:30.540,693,0.969526,-0.22018349,-0.7281345,0.0,0.0,0.0
2026-05-10 20:55:30.550,694,0.969526,-0.22018349,-0.7281345,0.0,0.0,0.0
2026-05-10 20:55:30.560,695,0.969526,-0.22018349,-0.7281345,0.0,0.0,0.0
2026-05-10 20:55:30.570,696,0.969526,-0.22018349,-0.7281345,0.0,0.0,0.0
2026-05-10 20:55:30.580,697,0.969526,-0.22018349,-0.7281345,0.0,0.0,0.0
2026-05-10 20:55:30.590,698,0.964419,-0.18215597000000003,-0.74128443,0.0,0.0,0.0
2026-05-10 20:55:30.600,699,1.0022477,-0.1235474,-0.756682,0.0,0.0,0.0
2026-05-10 20:55:30.610,700,1.0022477,-0.12354740000000002,-0.756682,0.0,0.0,0.0
2026-05-10 20:55:30.620,701,1.0022477,-0.1235474,-0.756682,0.0,0.0,0.0
2026-05-10 20:55:30.630,702,1.0029587000000002,-0.0906192675,-0.7745183499999999,0.0,0.0,0.0
2026-05-10 20:55:30.640,703,1.0036697,-0.057691135,-0.7923547,0.0,0.0,0.0
2026-05-10 20:55:30.650,704,1.0036697,-0.057691135,-0.7923547000000001,0.0,0.0,0.0
2026-05-10 20:55:30.660,705,0.9677829,-0.018348623,-0.8093730999999998,0.0,0.0,0.0
2026-05-10 20:55:30.670,706,0.9677829,-0.018348623,-0.8093730999999998,0.0,0.0,0.0
2026-05-10 20:55:30.680,707,0.9677829,-0.018348623,-0.8093730999999998,0.0,0.0,0.0
2026-05-10 20:55:30.690,708,0.9677829,-0.018348623,-0.8093730999999998,0.0,0.0,0.0
2026-05-10 20:55:30.700,709,0.9677829,-0.018348623,-0.8093730999999998,0.0,0.0,0.0
2026-05-10 20:55:30.710,710,0.9677829,-0.018348623,-0.8093730999999998,0.0,0.0,0.0
2026-05-10 20:55:30.720,711,0.9677829,-0.018348623,-0.8093731,0.0,0.0,0.0
2026-05-10 20:55:30.730,712,0.9677829,-0.018348623,-0.8093730999999998,0.0,0.0,0.0
2026-05-10 20:55:30.740,713,0.9677829,-0.018348623,-0.8093730999999998,0.0,0.0,0.0
2026-05-10 20:55:30.750,714,0.9677829,-0.018348623,-0.8093730999999998,0.0,0.0,0.0
2026-05-10 20:55:30.760,715,0.9677829,-0.018348623,-0.8093730999999998,0.0,0.0,0.0
2026-05-10 20:55:30.770,716,0.9677829,-0.018348623,-0.8093730999999998,0.0,0.0,0.0
2026-05-10 20:55:30.780,717,0.9677829,-0.018348623,-0.8093730999999998,0.0,0.0,0.0
2026-05-10 20:55:30.790,718,0.9677829,-0.018348623,-0.8093731,0.0,0.0,0.0
2026-05-10 20:55:30.800,719,0.9677829,-0.018348623,-0.8093730999999998,0.0,0.0,0.0
2026-05-10 20:55:30.810,720,0.9677829,-0.018348623,-0.8093730999999998,0.0,0.0,0.0
2026-05-10 20:55:30.820,721,1.0382620333333332,-0.0026503565333333336,-0.8372425866666666,0.0,0.0,0.0
2026-05-10 20:55:30.830,722,1.0735016,0.0051987767,-0.85117733,0.0,0.0,0.0
2026-05-10 20:55:30.840,723,1.0735016,0.0051987767,-0.85117733,0.0,0.0,0.0
2026-05-10 20:55:30.850,724,1.0735016,0.0051987767,-0.85117733,0.0,0.0,0.0
2026-05-10 20:55:30.860,725,1.0735016,0.0051987767,-0.85117733,0.0,0.0,0.0
2026-05-10 20:55:30.870,726,1.172105,0.0113863409,-0.8746228233333334,0.0,0.0,0.0
2026-05-10 20:55:30.880,727,1.2214067,0.014480123,-0.88634557,0.0,0.0,0.0
2026-05-10 20:55:30.890,728,1.2214067,0.014480123,-0.88634557,0.0,0.0,0.0
2026-05-10 20:55:30.900,729,1.25555815,0.016207950999999998,-0.945259985,0.0,0.0,0.0
2026-05-10 20:55:30.910,730,1.2897096,0.017935779,-1.0041744,0.0,0.0,0.0
2026-05-10 20:55:30.920,731,1.2897096,0.017935779,-1.0041744,0.0,0.0,0.0
2026-05-10 20:55:30.930,732,1.2897096,0.017935779,-1.0041744,0.0,0.0,0.0
2026-05-10 20:55:30.940,733,1.2897096,0.017935779,-1.0041744,0.0,0.0,0.0
2026-05-10 20:55:30.950,734,1.2897096,0.017935779,-1.0041744,0.0,0.0,0.0
2026-05-10 20:55:30.960,735,1.3416973333333333,0.017426095333333332,-1.0766514333333332,0.0,0.0,0.0
2026-05-10 20:55:30.970,736,1.4456727999999999,0.016406728,-1.2216055,0.0,0.0,0.0
2026-05-10 20:55:30.980,737,1.4456727999999999,0.016406728,-1.2216055,0.0,0.0,0.0
2026-05-10 20:55:30.990,738,1.4456727999999999,0.016406728,-1.2216055,0.0,0.0,0.0
2026-05-10 20:55:31.000,739,1.4456728,0.016406728,-1.2216055,0.0,0.0,0.0
2026-05-10 20:55:31.010,740,1.4456727999999999,0.016406728,-1.2216055,0.0,0.0,0.0
2026-05-10 20:55:31.020,741,1.4456727999999999,0.016406728,-1.2216055,0.0,0.0,0.0
2026-05-10 20:55:31.030,742,1.4456727999999999,0.016406728,-1.2216055,0.0,0.0,0.0
2026-05-10 20:55:31.040,743,1.5685016,0.03088685,-1.3505658,0.0,0.0,0.0
2026-05-10 20:55:31.050,744,1.5685016,0.03088685,-1.3505658,0.0,0.0,0.0
2026-05-10 20:55:31.060,745,1.5685016,0.03088685,-1.3505658,0.0,0.0,0.0
2026-05-10 20:55:31.070,746,1.6475332,-0.00961264,-1.5161722666666666,0.0,0.0,0.0
2026-05-10 20:55:31.080,747,1.687049,-0.029862385,-1.5989755,0.0,0.0,0.0
2026-05-10 20:55:31.090,748,1.687049,-0.029862385,-1.5989755,0.0,0.0,0.0
2026-05-10 20:55:31.100,749,1.687049,-0.029862385,-1.5989755,0.0,0.0,0.0
2026-05-10 20:55:31.110,750,1.687049,-0.029862385,-1.5989755,0.0,0.0,0.0
2026-05-10 20:55:31.120,751,1.6527064,0.02762997,-1.5013303,0.0,0.0,0.0
2026-05-10 20:55:31.130,752,1.6527064,0.02762997,-1.5013303,0.0,0.0,0.0
2026-05-10 20:55:31.140,753,1.6527064,0.02762997,-1.5013303,0.0,0.0,0.0
2026-05-10 20:55:31.150,754,1.6527064,0.02762997,-1.5013303,0.0,0.0,0.0
2026-05-10 20:55:31.160,755,1.6888226333333334,0.006763506666666666,-1.5347655333333332,0.0,0.0,0.0
2026-05-10 20:55:31.170,756,1.7610551,-0.03496942,-1.601636,0.0,0.0,0.0
2026-05-10 20:55:31.180,757,1.7610551,-0.03496942,-1.601636,0.0,0.0,0.0
2026-05-10 20:55:31.190,758,1.7610551,-0.03496942,-1.601636,0.0,0.0,0.0
2026-05-10 20:55:31.200,759,1.7610551,-0.03496942,-1.601636,0.0,0.0,0.0
2026-05-10 20:55:31.210,760,1.794969466666667,-0.09962793666666665,-1.5496482666666669,0.0,0.0,0.0
2026-05-10 20:55:31.220,761,1.916077975,-0.25915137,-1.42319575,0.0,0.0,0.0
2026-05-10 20:55:31.230,762,1.9338379,-0.26922017,-1.4157034,0.0,0.0,0.0
2026-05-10 20:55:31.240,763,1.9338379,-0.26922017,-1.4157034,0.0,0.0,0.0
2026-05-10 20:55:31.250,764,1.9397859666666666,-0.31260957,-1.4393833,0.0,0.0,0.0
2026-05-10 20:55:31.260,765,1.9638075,-0.46279815,-1.4962232,0.0,0.0,0.0
2026-05-10 20:55:31.270,766,1.8804281,-0.59999996,-1.4589144,0.0,0.0,0.0
2026-05-10 20:55:31.280,767,1.8804281000000003,-0.59999996,-1.4589144,0.0,0.0,0.0
2026-05-10 20:55:31.290,768,1.8804281000000003,-0.59999996,-1.4589144,0.0,0.0,0.0
2026-05-10 20:55:31.300,769,1.8804281,-0.59999996,-1.4589144,0.0,0.0,0.0
2026-05-10 20:55:31.310,770,1.8804281000000003,-0.59999996,-1.4589144,0.0,0.0,0.0
2026-05-10 20:55:31.320,771,1.833058033333333,-0.6435575866666667,-1.3783231999999999,0.0,0.0,0.0
2026-05-10 20:55:31.330,772,1.809373,-0.6653364,-1.3380276,0.0,0.0,0.0
2026-05-10 20:55:31.340,773,1.809373,-0.6653364,-1.3380276,0.0,0.0,0.0
2026-05-10 20:55:31.350,774,1.809373,-0.6653364,-1.3380276,0.0,0.0,0.0
2026-05-10 20:55:31.360,775,1.809373,-0.6653364,-1.3380276,0.0,0.0,0.0
2026-05-10 20:55:31.370,776,1.809373,-0.6653364,-1.3380276,0.0,0.0,0.0
2026-05-10 20:55:31.380,777,1.809373,-0.6653364,-1.3380276,0.0,0.0,0.0
2026-05-10 20:55:31.390,778,1.809373,-0.6653364,-1.3380276,0.0,0.0,0.0
2026-05-10 20:55:31.400,779,1.7769265666666667,-0.6688379333333333,-1.2806677333333332,0.0,0.0,0.0
2026-05-10 20:55:31.410,780,1.7120337,-0.675841,-1.165948,0.0,0.0,0.0
2026-05-10 20:55:31.420,781,1.7120337,-0.675841,-1.165948,0.0,0.0,0.0
2026-05-10 20:55:31.430,782,1.7120337,-0.675841,-1.165948,0.0,0.0,0.0
2026-05-10 20:55:31.440,783,1.5443425,-0.73711014,-0.8753364,0.0,0.0,0.0
2026-05-10 20:55:31.450,784,1.5443425,-0.73711014,-0.8753364,0.0,0.0,0.0
2026-05-10 20:55:31.460,785,1.5443425,-0.73711014,-0.8753364,0.0,0.0,0.0
2026-05-10 20:55:31.470,786,1.5443425,-0.73711014,-0.8753364,0.0,0.0,0.0
2026-05-10 20:55:31.480,787,1.5443425,-0.73711014,-0.8753364,0.0,0.0,0.0
2026-05-10 20:55:31.490,788,1.5443425,-0.73711014,-0.8753364,0.0,0.0,0.0
2026-05-10 20:55:31.500,789,1.5443425,-0.73711014,-0.8753364,0.0,0.0,0.0
2026-05-10 20:55:31.510,790,1.5443425,-0.73711014,-0.8753364,0.0,0.0,0.0
2026-05-10 20:55:31.520,791,1.5443425,-0.73711014,-0.8753364,0.0,0.0,0.0
2026-05-10 20:55:31.530,792,1.5443425,-0.73711014,-0.8753364,0.0,0.0,0.0
2026-05-10 20:55:31.540,793,1.5443425,-0.73711014,-0.8753364,0.0,0.0,0.0
2026-05-10 20:55:31.550,794,1.5443425,-0.73711014,-0.8753364,0.0,0.0,0.0
2026-05-10 20:55:31.560,795,1.5443425,-0.73711014,-0.8753364,0.0,0.0,0.0
2026-05-10 20:55:31.570,796,1.5443425,-0.73711014,-0.8753364,0.0,0.0,0.0
2026-05-10 20:55:31.580,797,1.5064882666666666,-0.7488328599999999,-0.8191997999999999,0.0,0.0,0.0
2026-05-10 20:55:31.590,798,1.4307798,-0.7722783,-0.7069266,0.0,0.0,0.0
2026-05-10 20:55:31.600,799,1.1574566666666666,-0.8371712733333334,-0.5839296666666667,0.0,0.0,0.0
2026-05-10 20:55:31.610,800,1.0207951,-0.86961776,-0.5224312,0.0,0.0,0.0
2026-05-10 20:55:31.620,801,0.7111161999999999,-0.9084556,-0.5150917,0.0,0.0,0.0
2026-05-10 20:55:31.630,802,0.7111162,-0.9084556,-0.5150917,0.0,0.0,0.0
2026-05-10 20:55:31.640,803,0.7111161999999999,-0.9084556,-0.5150917,0.0,0.0,0.0
2026-05-10 20:55:31.650,804,0.7111161999999999,-0.9084556,-0.5150917,0.0,0.0,0.0
2026-05-10 20:55:31.660,805,0.7111161999999999,-0.9084556,-0.5150917,0.0,0.0,0.0
2026-05-10 20:55:31.670,806,0.7111161999999999,-0.9084556,-0.5150917,0.0,0.0,0.0
2026-05-10 20:55:31.680,807,0.7111161999999999,-0.9084556,-0.5150917,0.0,0.0,0.0
2026-05-10 20:55:31.690,808,0.7111161999999999,-0.9084556,-0.5150917,0.0,0.0,0.0
2026-05-10 20:55:31.700,809,0.7111161999999999,-0.9084556,-0.5150917,0.0,0.0,0.0
2026-05-10 20:55:31.710,810,0.7111161999999999,-0.9084556,-0.5150917,0.0,0.0,0.0
2026-05-10 20:55:31.720,811,0.7111161999999999,-0.9084556,-0.5150917,0.0,0.0,0.0
2026-05-10 20:55:31.730,812,0.7111161999999999,-0.9084556,-0.5150917,0.0,0.0,0.0
2026-05-10 20:55:31.740,813,0.7111162,-0.9084556,-0.5150917,0.0,0.0,0.0
2026-05-10 20:55:31.750,814,0.545632,-0.9315647333333333,-0.5093833,0.0,0.0,0.0
2026-05-10 20:55:31.760,815,0.36183995333333335,-0.94842,-0.5062895466666667,0.0,0.0,0.0
2026-05-10 20:55:31.770,816,0.15974006,-0.9590214,-0.50581044,0.0,0.0,0.0
2026-05-10 20:55:31.780,817,0.05107543333333333,-0.9745515,-0.58885324,0.0,0.0,0.0
2026-05-10 20:55:31.790,818,-0.16625382,-1.0056117,-0.75493884,0.0,0.0,0.0
2026-05-10 20:55:31.800,819,-0.16625382,-1.0056117,-0.75493884,0.0,0.0,0.0
2026-05-10 20:55:31.810,820,-0.16625382,-1.0056117,-0.75493884,0.0,0.0,0.0
2026-05-10 20:55:31.820,821,-0.13353212,-1.0190673,-0.65270644,0.0,0.0,0.0
2026-05-10 20:55:31.830,822,-0.13353212,-1.0190673,-0.65270644,0.0,0.0,0.0
2026-05-10 20:55:31.840,823,-0.13353212,-1.0190673,-0.65270644,0.0,0.0,0.0
2026-05-10 20:55:31.850,824,-0.13353212,-1.0190673,-0.65270644,0.0,0.0,0.0
2026-05-10 20:55:31.860,825,-0.13353212,-1.0190673,-0.65270644,0.0,0.0,0.0
2026-05-10 20:55:31.870,826,-0.13353212,-1.0190673,-0.65270644,0.0,0.0,0.0
2026-05-10 20:55:31.880,827,-0.13353212,-1.0190673,-0.65270644,0.0,0.0,0.0
2026-05-10 20:55:31.890,828,-0.13353212,-1.0190673,-0.65270644,0.0,0.0,0.0
2026-05-10 20:55:31.900,829,-0.13649847,-1.0553517,-0.375948,0.0,0.0,0.0
2026-05-10 20:55:31.910,830,-0.13649847,-1.0553517,-0.375948,0.0,0.0,0.0
2026-05-10 20:55:31.920,831,-0.13649847,-1.0553517,-0.375948,0.0,0.0,0.0
2026-05-10 20:55:31.930,832,-0.13649847,-1.0553517,-0.375948,0.0,0.0,0.0
2026-05-10 20:55:31.940,833,-0.13649847,-1.0553517,-0.375948,0.0,0.0,0.0
2026-05-10 20:55:31.950,834,-0.11794597666666667,-1.1195005,-0.11240060666666667,0.0,0.0,0.0
2026-05-10 20:55:31.960,835,-0.10866973,-1.1515749,0.01937309,0.0,0.0,0.0
2026-05-10 20:55:31.970,836,-0.10866973,-1.1515749,0.01937309,0.0,0.0,0.0
2026-05-10 20:55:31.980,837,-0.10866973,-1.1515749,0.01937309,0.0,0.0,0.0
2026-05-10 20:55:31.990,838,-0.10866973,-1.1515749,0.01937309,0.0,0.0,0.0
2026-05-10 20:55:32.000,839,-0.10802243,-1.1723037333333333,0.09501019666666667,0.0,0.0,0.0
2026-05-10 20:55:32.010,840,-0.10672783000000001,-1.2137614,0.24628441,0.0,0.0,0.0
2026-05-10 20:55:32.020,841,-0.10672783000000001,-1.2137614,0.24628441,0.0,0.0,0.0
2026-05-10 20:55:32.030,842,-0.10672783,-1.2137614,0.24628441,0.0,0.0,0.0
2026-05-10 20:55:32.040,843,-0.10859837,-1.2392456333333335,0.30706933000000003,0.0,0.0,0.0
2026-05-10 20:55:32.050,844,-0.11233945,-1.2902141,0.42863917,0.0,0.0,0.0
2026-05-10 20:55:32.060,845,-0.11233945,-1.2902141,0.42863917,0.0,0.0,0.0
2026-05-10 20:55:32.070,846,-0.11233945,-1.2902141,0.42863917,0.0,0.0,0.0
2026-05-10 20:55:32.080,847,-0.11233945,-1.2902141,0.42863917,0.0,0.0,0.0
2026-05-10 20:55:32.090,848,-0.11233945,-1.2902141,0.42863917,0.0,0.0,0.0
2026-05-10 20:55:32.100,849,-0.15739551666666665,-1.344719633333333,0.5506982766666667,0.0,0.0,0.0
2026-05-10 20:55:32.110,850,-0.17992355,-1.3719724,0.61172783,0.0,0.0,0.0
2026-05-10 20:55:32.120,851,-0.17992354999999996,-1.3719724,0.61172783,0.0,0.0,0.0
2026-05-10 20:55:32.130,852,-0.17992354999999996,-1.3719724,0.61172783,0.0,0.0,0.0
2026-05-10 20:55:32.140,853,-0.27900611666666664,-1.3955504666666665,0.6710550366666667,0.0,0.0,0.0
2026-05-10 20:55:32.150,854,-0.474059625,-1.400561975,0.6867010549999999,0.0,0.0,0.0
2026-05-10 20:55:32.160,855,-0.9105963,-1.3802294,0.6446483,0.0,0.0,0.0
2026-05-10 20:55:32.170,856,-0.9105963,-1.3802294,0.6446483,0.0,0.0,0.0
2026-05-10 20:55:32.180,857,-0.9105963,-1.3802294,0.6446483,0.0,0.0,0.0
2026-05-10 20:55:32.190,858,-0.9105963,-1.3802294,0.6446483,0.0,0.0,0.0
2026-05-10 20:55:32.200,859,-0.9105963,-1.3802294,0.6446483,0.0,0.0,0.0
2026-05-10 20:55:32.210,860,-0.9105963,-1.3802294,0.6446483,0.0,0.0,0.0
2026-05-10 20:55:32.220,861,-0.9105963,-1.3802294,0.6446483,0.0,0.0,0.0
2026-05-10 20:55:32.230,862,-0.9105963,-1.3802294,0.6446483,0.0,0.0,0.0
2026-05-10 20:55:32.240,863,-1.6201835,-1.2228287,0.42426607,0.0,0.0,0.0
2026-05-10 20:55:32.250,864,-1.6201835000000002,-1.2228287,0.42426607,0.0,0.0,0.0
2026-05-10 20:55:32.260,865,-1.6201835000000002,-1.2228287,0.42426607,0.0,0.0,0.0
2026-05-10 20:55:32.270,866,-1.6201835000000002,-1.2228287,0.42426607,0.0,0.0,0.0
2026-05-10 20:55:32.280,867,-1.6201835000000002,-1.2228287,0.42426607,0.0,0.0,0.0
2026-05-10 20:55:32.290,868,-1.68955275,-1.2059327,0.41603212,0.0,0.0,0.0
2026-05-10 20:55:32.300,869,-1.8976605,-1.1552447,0.3913302699999999,0.0,0.0,0.0
2026-05-10 20:55:32.310,870,-1.8976605,-1.1552447,0.3913302699999999,0.0,0.0,0.0
2026-05-10 20:55:32.320,871,-1.8976605,-1.1552447,0.39133027,0.0,0.0,0.0
2026-05-10 20:55:32.330,872,-1.8976605,-1.1552447,0.3913302699999999,0.0,0.0,0.0
2026-05-10 20:55:32.340,873,-1.8976605,-1.1552447,0.3913302699999999,0.0,0.0,0.0
2026-05-10 20:55:32.350,874,-1.8976605,-1.1552447,0.3913302699999999,0.0,0.0,0.0
2026-05-10 20:55:32.360,875,-1.739120775,-1.107515325,0.492530585,0.0,0.0,0.0
2026-05-10 20:55:32.370,876,-1.2379205,-1.0621866,0.7544343000000001,0.0,0.0,0.0
2026-05-10 20:55:32.380,877,-1.2379205,-1.0621866,0.7544343000000001,0.0,0.0,0.0
2026-05-10 20:55:32.390,878,-1.2379205,-1.0621866,0.7544343000000001,0.0,0.0,0.0
2026-05-10 20:55:32.400,879,-1.2379205,-1.0621866,0.7544343000000001,0.0,0.0,0.0
2026-05-10 20:55:32.410,880,-1.1119979666666666,-1.1153975333333335,0.8769623000000001,0.0,0.0,0.0
2026-05-10 20:55:32.420,881,-1.0490367,-1.142003,0.9382262999999998,0.0,0.0,0.0
2026-05-10 20:55:32.430,882,-1.0490367,-1.142003,0.9382262999999998,0.0,0.0,0.0
2026-05-10 20:55:32.440,883,-1.0490367,-1.142003,0.9382262999999998,0.0,0.0,0.0
2026-05-10 20:55:32.450,884,-1.1425127333333334,-1.1318399000000001,1.0619775999999999,0.0,0.0,0.0
2026-05-10 20:55:32.460,885,-1.6252853333333332,-1.0763863,1.2260244666666666,0.0,0.0,0.0
2026-05-10 20:55:32.470,886,-1.7731956,-1.0588226,1.1842966,0.0,0.0,0.0
2026-05-10 20:55:32.480,887,-1.8786238,-1.037821075,0.9833027249999999,0.0,0.0,0.0
2026-05-10 20:55:32.490,888,-2.1949084,-0.9748164999999999,0.3803211,0.0,0.0,0.0
2026-05-10 20:55:32.500,889,-1.9650305999999997,-0.904786,0.22282875,0.0,0.0,0.0
2026-05-10 20:55:32.510,890,-1.9650306,-0.904786,0.22282875,0.0,0.0,0.0
2026-05-10 20:55:32.520,891,-1.9650305999999997,-0.904786,0.22282875,0.0,0.0,0.0
2026-05-10 20:55:32.530,892,-1.9650306,-0.904786,0.22282875,0.0,0.0,0.0
2026-05-10 20:55:32.540,893,-1.9650305999999997,-0.904786,0.22282875,0.0,0.0,0.0
2026-05-10 20:55:32.550,894,-1.9528339,-0.8595617333333333,0.2355402666666667,0.0,0.0,0.0
2026-05-10 20:55:32.560,895,-1.9284405,-0.7691132,0.2609633,0.0,0.0,0.0
2026-05-10 20:55:32.570,896,-1.9284405,-0.7691132,0.2609633,0.0,0.0,0.0
2026-05-10 20:55:32.580,897,-1.9284405,-0.7691132,0.2609633,0.0,0.0,0.0
2026-05-10 20:55:32.590,898,-1.9284405,-0.7691132,0.2609633,0.0,0.0,0.0
2026-05-10 20:55:32.600,899,-1.9284405,-0.7691132,0.2609633,0.0,0.0,0.0
2026-05-10 20:55:32.610,900,-1.9284405,-0.7691132,0.2609633,0.0,0.0,0.0
2026-05-10 20:55:32.620,901,-1.9284405,-0.7691132,0.2609633,0.0,0.0,0.0
2026-05-10 20:55:32.630,902,-1.9284405,-0.7691132,0.2609633,0.0,0.0,0.0
2026-05-10 20:55:32.640,903,-1.9284405,-0.7691132,0.2609633,0.0,0.0,0.0
2026-05-10 20:55:32.650,904,-1.9284405,-0.7691132,0.2609633,0.0,0.0,0.0
2026-05-10 20:55:32.660,905,-1.9284405,-0.7691132,0.2609633,0.0,0.0,0.0
2026-05-10 20:55:32.670,906,-1.9284405,-0.7691132,0.2609633,0.0,0.0,0.0
2026-05-10 20:55:32.680,907,-1.9284405,-0.7691132,0.2609633,0.0,0.0,0.0
2026-05-10 20:55:32.690,908,-1.9284405,-0.7691132,0.2609633,0.0,0.0,0.0
2026-05-10 20:55:32.700,909,-2.16600165,-0.73113915,0.372629975,0.0,0.0,0.0
2026-05-10 20:55:32.710,910,-2.4035628,-0.6931651,0.48429664999999994,0.0,0.0,0.0
2026-05-10 20:55:32.720,911,-2.4035628,-0.6931651,0.48429664999999994,0.0,0.0,0.0
2026-05-10 20:55:32.730,912,-2.4035628,-0.6931651,0.48429664999999994,0.0,0.0,0.0
2026-05-10 20:55:32.740,913,-2.4035628,-0.6931651,0.48429664999999994,0.0,0.0,0.0
2026-05-10 20:55:32.750,914,-2.4035628,-0.6931651,0.48429665,0.0,0.0,0.0
2026-05-10 20:55:32.760,915,-2.4035628,-0.6931651,0.48429664999999994,0.0,0.0,0.0
2026-05-10 20:55:32.770,916,-2.700474,-0.8218093666666667,0.47136086666666666,0.0,0.0,0.0
2026-05-10 20:55:32.780,917,-2.7313914,-0.8601376,0.4520948,0.0,0.0,0.0
2026-05-10 20:55:32.790,918,-2.7313914,-0.8601376,0.4520948,0.0,0.0,0.0
2026-05-10 20:55:32.800,919,-2.7313914,-0.8601376,0.4520948,0.0,0.0,0.0
2026-05-10 20:55:32.810,920,-2.7313914,-0.8601376,0.4520948,0.0,0.0,0.0
2026-05-10 20:55:32.820,921,-2.7313914,-0.8601376,0.4520948,0.0,0.0,0.0
2026-05-10 20:55:32.830,922,-2.7313914,-0.8601376,0.4520948,0.0,0.0,0.0
2026-05-10 20:55:32.840,923,-2.7313914,-0.8601376,0.4520948,0.0,0.0,0.0
2026-05-10 20:55:32.850,924,-2.7313914,-0.8601376,0.4520948,0.0,0.0,0.0
2026-05-10 20:55:32.860,925,-2.7450509333333333,-0.8743068099999999,0.40547401,0.0,0.0,0.0
2026-05-10 20:55:32.870,926,-2.77237,-0.90264523,0.31223243,0.0,0.0,0.0
2026-05-10 20:55:32.880,927,-2.77237,-0.90264523,0.31223243,0.0,0.0,0.0
2026-05-10 20:55:32.890,928,-2.7485525,-0.8906880533333332,0.27706422999999997,0.0,0.0,0.0
2026-05-10 20:55:32.900,929,-2.7009175000000005,-0.8667737,0.20672783000000003,0.0,0.0,0.0
2026-05-10 20:55:32.910,930,-2.7009175000000005,-0.8667737,0.20672783000000003,0.0,0.0,0.0
2026-05-10 20:55:32.920,931,-2.7009175000000005,-0.8667737,0.20672783000000003,0.0,0.0,0.0
2026-05-10 20:55:32.930,932,-2.6286697500000002,-0.827958715,0.22777904999999998,0.0,0.0,0.0
2026-05-10 20:55:32.940,933,-2.4119265,-0.71151376,0.29093271,0.0,0.0,0.0
2026-05-10 20:55:32.950,934,-2.4537728249999997,-0.68626147,0.3552025975,0.0,0.0,0.0
2026-05-10 20:55:32.960,935,-2.5793118,-0.6105046,0.54801226,0.0,0.0,0.0
2026-05-10 20:55:32.970,936,-2.687670666666667,-0.5672833833333333,0.6442405733333333,0.0,0.0,0.0
2026-05-10 20:55:32.980,937,-2.9043884,-0.48084095,0.8366972,0.0,0.0,0.0
2026-05-10 20:55:32.990,938,-2.9043884,-0.48084095,0.8366972,0.0,0.0,0.0
2026-05-10 20:55:33.000,939,-2.9043884,-0.48084095,0.8366972,0.0,0.0,0.0
2026-05-10 20:55:33.010,940,-2.9043884,-0.48084095,0.8366972,0.0,0.0,0.0
2026-05-10 20:55:33.020,941,-2.9043884,-0.48084095,0.8366972,0.0,0.0,0.0
2026-05-10 20:55:33.030,942,-2.9043884,-0.48084095,0.8366972,0.0,0.0,0.0
2026-05-10 20:55:33.040,943,-3.0216055,-0.44454128,0.8366972,0.0,0.0,0.0
2026-05-10 20:55:33.050,944,-3.0525994499999998,-0.41330275,0.75275225,0.0,0.0,0.0
2026-05-10 20:55:33.060,945,-3.05879824,-0.407055044,0.73596326,0.0,0.0,0.0
2026-05-10 20:55:33.070,946,-3.06499703,-0.400807338,0.71917427,0.0,0.0,0.0
2026-05-10 20:55:33.080,947,-3.07119582,-0.394559632,0.70238528,0.0,0.0,0.0
2026-05-10 20:55:33.090,948,-3.07739461,-0.38831192600000003,0.68559629,0.0,0.0,0.0
2026-05-10 20:55:33.100,949,-3.0835934,-0.38206422,0.6688073,0.0,0.0,0.0
2026-05-10 20:55:33.110,950,-3.0835934,-0.38206422,0.6688073,0.0,0.0,0.0
2026-05-10 20:55:33.120,951,-3.0835934,-0.38206422,0.6688073,0.0,0.0,0.0
2026-05-10 20:55:33.130,952,-3.0835934,-0.38206422,0.6688073,0.0,0.0,0.0
2026-05-10 20:55:33.140,953,-3.0835934,-0.38206422,0.6688073,0.0,0.0,0.0
2026-05-10 20:55:33.150,954,-3.0835934,-0.38206422,0.6688073,0.0,0.0,0.0
2026-05-10 20:55:33.160,955,-3.0835934,-0.38206422,0.6688073,0.0,0.0,0.0
2026-05-10 20:55:33.170,956,-3.0835934,-0.38206422,0.6688073,0.0,0.0,0.0
2026-05-10 20:55:33.180,957,-3.0835934,-0.38206422,0.6688073,0.0,0.0,0.0
2026-05-10 20:55:33.190,958,-3.0835934,-0.38206422,0.6688073,0.0,0.0,0.0
2026-05-10 20:55:33.200,959,-3.0835934,-0.38206422,0.6688073,0.0,0.0,0.0
2026-05-10 20:55:33.210,960,-3.0835934,-0.38206422,0.6688073,0.0,0.0,0.0
2026-05-10 20:55:33.220,961,-3.0835934,-0.38206422,0.6688073,0.0,0.0,0.0
2026-05-10 20:55:33.230,962,-3.0835934,-0.38206422,0.6688073,0.0,0.0,0.0
2026-05-10 20:55:33.240,963,-3.0835934,-0.38206422,0.6688073,0.0,0.0,0.0
2026-05-10 20:55:33.250,964,-3.0456727333333333,-0.33761978000000004,0.5986748333333334,0.0,0.0,0.0
2026-05-10 20:55:33.260,965,-3.0267124,-0.31539756,0.5636086,0.0,0.0,0.0
2026-05-10 20:55:33.270,966,-3.0267123999999996,-0.31539756,0.5636086,0.0,0.0,0.0
2026-05-10 20:55:33.280,967,-3.0267123999999996,-0.31539756,0.5636086,0.0,0.0,0.0
2026-05-10 20:55:33.290,968,-2.9337104000000003,-0.29340979333333334,0.53812439,0.0,0.0,0.0
2026-05-10 20:55:33.300,969,-2.7477064,-0.24943426,0.48715597,0.0,0.0,0.0
2026-05-10 20:55:33.310,970,-2.7477064,-0.24943426,0.48715597,0.0,0.0,0.0
2026-05-10 20:55:33.320,971,-2.7477064,-0.24943426,0.48715597000000005,0.0,0.0,0.0
2026-05-10 20:55:33.330,972,-2.7477064,-0.24943426,0.48715597000000005,0.0,0.0,0.0
2026-05-10 20:55:33.340,973,-2.7477064,-0.24943426,0.48715597,0.0,0.0,0.0
2026-05-10 20:55:33.350,974,-2.7477064,-0.24943426,0.48715597000000005,0.0,0.0,0.0
2026-05-10 20:55:33.360,975,-2.7477064,-0.24943426,0.48715597000000005,0.0,0.0,0.0
2026-05-10 20:55:33.370,976,-2.7477064,-0.24943426,0.48715597000000005,0.0,0.0,0.0
2026-05-10 20:55:33.380,977,-2.7477064,-0.24943426,0.48715597000000005,0.0,0.0,0.0
2026-05-10 20:55:33.390,978,-2.7477064,-0.24943426,0.48715597000000005,0.0,0.0,0.0
2026-05-10 20:55:33.400,979,-2.782874566666667,0.12745667333333333,0.38712539,0.0,0.0,0.0
2026-05-10 20:55:33.410,980,-2.8693118,0.30714068,0.42426607,0.0,0.0,0.0
2026-05-10 20:55:33.420,981,-2.8693118,0.30714068,0.42426607,0.0,0.0,0.0
2026-05-10 20:55:33.430,982,-2.8693118,0.30714068,0.42426607,0.0,0.0,0.0
2026-05-10 20:55:33.440,983,-2.8693118,0.30714068,0.42426607,0.0,0.0,0.0
2026-05-10 20:55:33.450,984,-2.8693118,0.30714068,0.42426607,0.0,0.0,0.0
2026-05-10 20:55:33.460,985,-2.5847044,0.29266565333333333,0.20652906333333332,0.0,0.0,0.0
2026-05-10 20:55:33.470,986,-2.3401274666666665,0.26330785333333334,0.055968405666666665,0.0,0.0,0.0
2026-05-10 20:55:33.480,987,-2.135581,0.21906728,-0.027415903,0.0,0.0,0.0
2026-05-10 20:55:33.490,988,-2.088486233333333,0.21662079999999997,-0.041075435333333334,0.0,0.0,0.0
2026-05-10 20:55:33.500,989,-1.7829408999999998,0.1935117266666667,-0.08939347999999998,0.0,0.0,0.0
2026-05-10 20:55:33.510,990,-1.658765225,0.1224770625,-0.0881957225,0.0,0.0,0.0
2026-05-10 20:55:33.520,991,-1.6525993,0.10183486,-0.08429664,0.0,0.0,0.0
2026-05-10 20:55:33.530,992,-1.6525993,0.10183486,-0.08429664,0.0,0.0,0.0
2026-05-10 20:55:33.540,993,-1.6525993,0.10183486000000001,-0.08429663999999999,0.0,0.0,0.0
2026-05-10 20:55:33.550,994,-1.6525993,0.10183486000000001,-0.08429663999999999,0.0,0.0,0.0
2026-05-10 20:55:33.560,995,-1.6525993,0.10183486000000001,-0.08429663999999999,0.0,0.0,0.0
2026-05-10 20:55:33.570,996,-1.6525993,0.10183486000000001,-0.08429663999999999,0.0,0.0,0.0
2026-05-10 20:55:33.580,997,-1.6525993,0.10183486000000001,-0.08429663999999999,0.0,0.0,0.0
2026-05-10 20:55:33.590,998,-1.6640825333333336,0.07580529933333334,-0.09316514199999999,0.0,0.0,0.0
2026-05-10 20:55:33.600,999,-1.687049,0.023746177999999996,-0.110902146,0.0,0.0,0.0
2026-05-10 20:55:33.610,1000,-1.9089348,-0.14621304733333332,-0.23194188200000002,0.0,0.0,0.0
2026-05-10 20:55:33.620,1001,-2.0198777,-0.23119265999999997,-0.29246175,0.0,0.0,0.0
