timestamp,id,acc_x,acc_y,acc_z,gyro_x,gyro_y,gyro_z
2026-05-10 20:52:55.580,1,0.060657494,0.3148777,1.0031651,0.0,0.0,0.0
2026-05-10 20:52:55.590,2,0.051636087,0.31590215,1.0409785999999999,0.0,0.0,0.0
2026-05-10 20:52:55.600,3,0.04261468,0.3169266,1.0787921,0.0,0.0,0.0
2026-05-10 20:52:55.610,4,0.04261468,0.3169266,1.0787921,0.0,0.0,0.0
2026-05-10 20:52:55.620,5,0.04261468,0.3169266,1.0787921,0.0,0.0,0.0
2026-05-10 20:52:55.630,6,0.050657492,0.2894954,1.0575994,0.0,0.0,0.0
2026-05-10 20:52:55.640,7,0.050657492,0.2894954,1.0575994,0.0,0.0,0.0
2026-05-10 20:52:55.650,8,0.056269117,0.28348625,1.0212079,0.0,0.0,0.0
2026-05-10 20:52:55.660,9,0.056269117,0.28348625,1.0212079,0.0,0.0,0.0
2026-05-10 20:52:55.670,10,0.056269117,0.28348625,1.0212079,0.0,0.0,0.0
2026-05-10 20:52:55.680,11,0.05919470166666666,0.28885831666666667,1.0106677,0.0,0.0,0.0
2026-05-10 20:52:55.690,12,0.05739551266666667,0.29330785,0.9972426266666666,0.0,0.0,0.0
2026-05-10 20:52:55.700,13,0.055764522,0.2941896,0.99316514,0.0,0.0,0.0
2026-05-10 20:52:55.710,14,0.055764522000000004,0.2941896,0.99316514,0.0,0.0,0.0
2026-05-10 20:52:55.720,15,0.055764522000000004,0.2941896,0.99316514,0.0,0.0,0.0
2026-05-10 20:52:55.730,16,0.055764522,0.2941896,0.99316514,0.0,0.0,0.0
2026-05-10 20:52:55.740,17,0.055764522000000004,0.2941896,0.99316514,0.0,0.0,0.0
2026-05-10 20:52:55.750,18,0.055764522000000004,0.2941896,0.99316514,0.0,0.0,0.0
2026-05-10 20:52:55.760,19,0.055764522000000004,0.2941896,0.99316514,0.0,0.0,0.0
2026-05-10 20:52:55.770,20,0.04233944666666667,0.30760957666666666,0.9912996933333332,0.0,0.0,0.0
2026-05-10 20:52:55.780,21,0.015489296,0.33444952999999994,0.9875688,0.0,0.0,0.0
2026-05-10 20:52:55.790,22,0.015489296,0.33444953,0.9875688,0.0,0.0,0.0
2026-05-10 20:52:55.800,23,0.015489296,0.33444952999999994,0.9875688,0.0,0.0,0.0
2026-05-10 20:52:55.810,24,0.015489296,0.33444953,0.9875688,0.0,0.0,0.0
2026-05-10 20:52:55.820,25,0.015489296,0.33444952999999994,0.9875688,0.0,0.0,0.0
2026-05-10 20:52:55.830,26,0.0111773696,0.34039754666666666,1.0028593333333333,0.0,0.0,0.0
2026-05-10 20:52:55.840,27,0.0025535168,0.35229358,1.0334404,0.0,0.0,0.0
2026-05-10 20:52:55.850,28,0.0025535168,0.35229358,1.0334404,0.0,0.0,0.0
2026-05-10 20:52:55.860,29,0.0025535168,0.35229358,1.0334404,0.0,0.0,0.0
2026-05-10 20:52:55.870,30,0.0025535168,0.35229358,1.0334404,0.0,0.0,0.0
2026-05-10 20:52:55.880,31,0.0025535168,0.35229358,1.0334404,0.0,0.0,0.0
2026-05-10 20:52:55.890,32,0.0025535168,0.35229358,1.0334404,0.0,0.0,0.0
2026-05-10 20:52:55.900,33,0.0025535168,0.35229358,1.0334404,0.0,0.0,0.0
2026-05-10 20:52:55.910,34,0.0025535168,0.35229358,1.0334404,0.0,0.0,0.0
2026-05-10 20:52:55.920,35,0.0025535168,0.35229358,1.0334404,0.0,0.0,0.0
2026-05-10 20:52:55.930,36,0.0025535168,0.35229358,1.0334404,0.0,0.0,0.0
2026-05-10 20:52:55.940,37,0.0025535168,0.35229358,1.0334404,0.0,0.0,0.0
2026-05-10 20:52:55.950,38,0.0025535168,0.35229358,1.0334404,0.0,0.0,0.0
2026-05-10 20:52:55.960,39,0.0002599389,0.36045107,1.05025995,0.0,0.0,0.0
2026-05-10 20:52:55.970,40,-0.002033639,0.36860856,1.0670795,0.0,0.0,0.0
2026-05-10 20:52:55.980,41,-0.002033639,0.36860856,1.0670795,0.0,0.0,0.0
2026-05-10 20:52:55.990,42,-0.002033639,0.36860856,1.0670795,0.0,0.0,0.0
2026-05-10 20:52:56.000,43,-0.002033639,0.36860856,1.0670795,0.0,0.0,0.0
2026-05-10 20:52:56.010,44,-0.002033639,0.36860856,1.0670795,0.0,0.0,0.0
2026-05-10 20:52:56.020,45,-0.002033639,0.36860856,1.0670795,0.0,0.0,0.0
2026-05-10 20:52:56.030,46,-0.002033639,0.36860856,1.0670795,0.0,0.0,0.0
2026-05-10 20:52:56.040,47,0.0011569827333333335,0.36976044,1.0934403666666668,0.0,0.0,0.0
2026-05-10 20:52:56.050,48,0.0027522936,0.3703363800000001,1.1066208,0.0,0.0,0.0
2026-05-10 20:52:56.060,49,0.0027522936,0.3703363800000001,1.1066208,0.0,0.0,0.0
2026-05-10 20:52:56.070,50,0.0027522936,0.3703363800000001,1.1066208,0.0,0.0,0.0
2026-05-10 20:52:56.080,51,0.0027522936,0.3703363800000001,1.1066208,0.0,0.0,0.0
2026-05-10 20:52:56.090,52,0.0027522936,0.3703363800000001,1.1066208,0.0,0.0,0.0
2026-05-10 20:52:56.100,53,0.0027522936,0.37033638,1.1066208,0.0,0.0,0.0
2026-05-10 20:52:56.110,54,0.0027522936,0.3703363800000001,1.1066208,0.0,0.0,0.0
2026-05-10 20:52:56.120,55,0.0027522936,0.3703363800000001,1.1066208,0.0,0.0,0.0
2026-05-10 20:52:56.130,56,0.0027522936,0.37033638,1.1066208,0.0,0.0,0.0
2026-05-10 20:52:56.140,57,0.0027522936,0.3703363800000001,1.1066208,0.0,0.0,0.0
2026-05-10 20:52:56.150,58,0.0027522936,0.37033638,1.1066208,0.0,0.0,0.0
2026-05-10 20:52:56.160,59,0.0027522936,0.3703363800000001,1.1066208,0.0,0.0,0.0
2026-05-10 20:52:56.170,60,0.0027522936,0.3703363800000001,1.1066208,0.0,0.0,0.0
2026-05-10 20:52:56.180,61,0.0027522936,0.3703363800000001,1.1066208,0.0,0.0,0.0
2026-05-10 20:52:56.190,62,0.0027522936,0.37033638,1.1066208,0.0,0.0,0.0
2026-05-10 20:52:56.200,63,0.0027522936,0.3703363800000001,1.1066208,0.0,0.0,0.0
2026-05-10 20:52:56.210,64,0.0027522936,0.37033638,1.1066208,0.0,0.0,0.0
2026-05-10 20:52:56.220,65,0.0027522936,0.3703363800000001,1.1066208,0.0,0.0,0.0
2026-05-10 20:52:56.230,66,0.0093807338,0.35652139000000005,1.1178363500000001,0.0,0.0,0.0
2026-05-10 20:52:56.240,67,0.016009174,0.3427064,1.1290519,0.0,0.0,0.0
2026-05-10 20:52:56.250,68,0.016009174,0.3427064,1.1290519,0.0,0.0,0.0
2026-05-10 20:52:56.260,69,0.016009174,0.3427064,1.1290519,0.0,0.0,0.0
2026-05-10 20:52:56.270,70,0.016009174,0.3427064,1.1290519,0.0,0.0,0.0
2026-05-10 20:52:56.280,71,0.016009174,0.3427064,1.1290519,0.0,0.0,0.0
2026-05-10 20:52:56.290,72,0.016009174,0.3427064,1.1290519,0.0,0.0,0.0
2026-05-10 20:52:56.300,73,0.016009174,0.3427064,1.1290519,0.0,0.0,0.0
2026-05-10 20:52:56.310,74,0.016009174,0.3427064,1.1290519,0.0,0.0,0.0
2026-05-10 20:52:56.320,75,0.016009174,0.3427064,1.1290519,0.0,0.0,0.0
2026-05-10 20:52:56.330,76,0.016009174,0.3427064,1.1290519,0.0,0.0,0.0
2026-05-10 20:52:56.340,77,0.0144036695,0.34112766250000004,1.1441398500000002,0.0,0.0,0.0
2026-05-10 20:52:56.350,78,0.009587156,0.33639145,1.1894037,0.0,0.0,0.0
2026-05-10 20:52:56.360,79,0.009587156,0.33639145,1.1894037,0.0,0.0,0.0
2026-05-10 20:52:56.370,80,0.009587156,0.33639145,1.1894037,0.0,0.0,0.0
2026-05-10 20:52:56.380,81,0.009587156,0.33639145,1.1894037,0.0,0.0,0.0
2026-05-10 20:52:56.390,82,0.009587156,0.33639145,1.1894037,0.0,0.0,0.0
2026-05-10 20:52:56.400,83,0.009587156,0.33639145,1.1894037,0.0,0.0,0.0
2026-05-10 20:52:56.410,84,0.009587156,0.33639145,1.1894037,0.0,0.0,0.0
2026-05-10 20:52:56.420,85,0.009587156,0.33639145,1.1894037,0.0,0.0,0.0
2026-05-10 20:52:56.430,86,0.009587156,0.33639145,1.1894037,0.0,0.0,0.0
2026-05-10 20:52:56.440,87,0.009587156,0.33639145,1.1894037,0.0,0.0,0.0
2026-05-10 20:52:56.450,88,0.009587156,0.33639145,1.1894037,0.0,0.0,0.0
2026-05-10 20:52:56.460,89,0.009587156,0.33639145,1.1894037,0.0,0.0,0.0
2026-05-10 20:52:56.470,90,0.009587156,0.33639145,1.1894037,0.0,0.0,0.0
2026-05-10 20:52:56.480,91,0.011080530333333333,0.3356778833333333,1.2002089999999999,0.0,0.0,0.0
2026-05-10 20:52:56.490,92,0.014067279,0.33425075,1.2218196,0.0,0.0,0.0
2026-05-10 20:52:56.500,93,0.081345566,0.34689602,1.1491284,0.0,0.0,0.0
2026-05-10 20:52:56.510,94,0.71478593,-0.9707492,0.5004129,0.0,0.0,0.0
2026-05-10 20:52:56.520,95,0.71478593,-0.9707491999999999,0.5004129,0.0,0.0,0.0
2026-05-10 20:52:56.530,96,0.71478593,-0.9707492,0.5004129,0.0,0.0,0.0
2026-05-10 20:52:56.540,97,0.71478593,-0.9707491999999999,0.5004129,0.0,0.0,0.0
2026-05-10 20:52:56.550,98,0.71478593,-0.9707492,0.5004129,0.0,0.0,0.0
2026-05-10 20:52:56.560,99,0.71478593,-0.9707492,0.5004129,0.0,0.0,0.0
2026-05-10 20:52:56.570,100,0.71478593,-0.9707491999999999,0.5004129,0.0,0.0,0.0
2026-05-10 20:52:56.580,101,0.71478593,-0.9707491999999999,0.5004129,0.0,0.0,0.0
2026-05-10 20:52:56.590,102,0.71478593,-0.9707491999999999,0.5004129,0.0,0.0,0.0
2026-05-10 20:52:56.600,103,0.71478593,-0.9707492,0.5004129,0.0,0.0,0.0
2026-05-10 20:52:56.610,104,0.71478593,-0.9707491999999999,0.5004129,0.0,0.0,0.0
2026-05-10 20:52:56.620,105,0.7282059200000001,-0.9077522666666665,0.3939908666666667,0.0,0.0,0.0
2026-05-10 20:52:56.630,106,0.7550459,-0.7817584,0.1811468,0.0,0.0,0.0
2026-05-10 20:52:56.640,107,0.7550459000000002,-0.7817583999999999,0.18114679999999997,0.0,0.0,0.0
2026-05-10 20:52:56.650,108,0.7550459,-0.7817584,0.1811468,0.0,0.0,0.0
2026-05-10 20:52:56.660,109,0.7550459000000002,-0.7817583999999999,0.18114679999999997,0.0,0.0,0.0
2026-05-10 20:52:56.670,110,0.7550459000000002,-0.7817583999999999,0.18114679999999997,0.0,0.0,0.0
2026-05-10 20:52:56.680,111,0.7550459,-0.7817584,0.1811468,0.0,0.0,0.0
2026-05-10 20:52:56.690,112,0.7550459000000002,-0.7817583999999999,0.18114679999999997,0.0,0.0,0.0
2026-05-10 20:52:56.700,113,0.7550459000000002,-0.7817583999999999,0.18114679999999997,0.0,0.0,0.0
2026-05-10 20:52:56.710,114,0.7550459000000002,-0.7817583999999999,0.18114679999999997,0.0,0.0,0.0
2026-05-10 20:52:56.720,115,0.7550459,-0.7817584,0.1811468,0.0,0.0,0.0
2026-05-10 20:52:56.730,116,0.7550459000000002,-0.7817583999999999,0.18114679999999997,0.0,0.0,0.0
2026-05-10 20:52:56.740,117,0.7550459,-0.7817584,0.1811468,0.0,0.0,0.0
2026-05-10 20:52:56.750,118,0.7550459000000002,-0.7817583999999999,0.18114679999999997,0.0,0.0,0.0
2026-05-10 20:52:56.760,119,0.7550459,-0.7817584,0.1811468,0.0,0.0,0.0
2026-05-10 20:52:56.770,120,0.7550459000000002,-0.7817583999999999,0.18114679999999997,0.0,0.0,0.0
2026-05-10 20:52:56.780,121,0.7550459000000002,-0.7817583999999999,0.18114679999999997,0.0,0.0,0.0
2026-05-10 20:52:56.790,122,0.7550459,-0.7817584,0.1811468,0.0,0.0,0.0
2026-05-10 20:52:56.800,123,0.7592558333333334,-0.6940927333333334,-0.031156986666666664,0.0,0.0,0.0
2026-05-10 20:52:56.810,124,0.7613608,-0.6502599,-0.13730888,0.0,0.0,0.0
2026-05-10 20:52:56.820,125,0.7613608,-0.6502599,-0.13730888,0.0,0.0,0.0
2026-05-10 20:52:56.830,126,0.7613608,-0.6502599,-0.13730888,0.0,0.0,0.0
2026-05-10 20:52:56.840,127,0.7613608,-0.6502599,-0.13730888,0.0,0.0,0.0
2026-05-10 20:52:56.850,128,0.7613608,-0.6502599,-0.13730888,0.0,0.0,0.0
2026-05-10 20:52:56.860,129,0.7613608,-0.6502599,-0.13730888,0.0,0.0,0.0
2026-05-10 20:52:56.870,130,0.7613608,-0.6502599,-0.13730888,0.0,0.0,0.0
2026-05-10 20:52:56.880,131,0.7613608,-0.6502599,-0.13730888,0.0,0.0,0.0
2026-05-10 20:52:56.890,132,0.793447975,-0.680229325,-0.18807341,0.0,0.0,0.0
2026-05-10 20:52:56.900,133,0.9168195999999998,-0.79571867,-0.34200305,0.0,0.0,0.0
2026-05-10 20:52:56.910,134,0.9168195999999998,-0.79571867,-0.34200305,0.0,0.0,0.0
2026-05-10 20:52:56.920,135,0.9168196,-0.79571867,-0.34200305,0.0,0.0,0.0
2026-05-10 20:52:56.930,136,0.9168195999999998,-0.79571867,-0.34200305,0.0,0.0,0.0
2026-05-10 20:52:56.940,137,0.9168196,-0.79571867,-0.34200305,0.0,0.0,0.0
2026-05-10 20:52:56.950,138,0.9168195999999998,-0.79571867,-0.34200305,0.0,0.0,0.0
2026-05-10 20:52:56.960,139,0.9168195999999998,-0.79571867,-0.34200305,0.0,0.0,0.0
2026-05-10 20:52:56.970,140,0.9168195999999998,-0.79571867,-0.34200305,0.0,0.0,0.0
2026-05-10 20:52:56.980,141,0.9007185999999999,-0.9216055,-0.34515287999999994,0.0,0.0,0.0
2026-05-10 20:52:56.990,142,0.9007185999999999,-0.9216055,-0.34515287999999994,0.0,0.0,0.0
2026-05-10 20:52:57.000,143,0.9007185999999999,-0.9216055,-0.34515287999999994,0.0,0.0,0.0
2026-05-10 20:52:57.010,144,0.9007185999999999,-0.9216055,-0.34515287999999994,0.0,0.0,0.0
2026-05-10 20:52:57.020,145,0.9007186,-0.9216055,-0.34515288,0.0,0.0,0.0
2026-05-10 20:52:57.030,146,0.9007185999999999,-0.9216055,-0.34515287999999994,0.0,0.0,0.0
2026-05-10 20:52:57.040,147,0.9007185999999999,-0.9216055,-0.34515287999999994,0.0,0.0,0.0
2026-05-10 20:52:57.050,148,0.4701376,-1.0278287,-0.22151376,0.0,0.0,0.0
2026-05-10 20:52:57.060,149,0.4701376,-1.0278287,-0.22151376,0.0,0.0,0.0
2026-05-10 20:52:57.070,150,0.4701376,-1.0278287,-0.22151376,0.0,0.0,0.0
2026-05-10 20:52:57.080,151,0.4701376,-1.0278287,-0.22151376,0.0,0.0,0.0
2026-05-10 20:52:57.090,152,0.4701376,-1.0278287,-0.22151376,0.0,0.0,0.0
2026-05-10 20:52:57.100,153,0.4701376,-1.0278287,-0.22151376,0.0,0.0,0.0
2026-05-10 20:52:57.110,154,0.4701376,-1.0278287,-0.22151376,0.0,0.0,0.0
2026-05-10 20:52:57.120,155,0.4701376,-1.0278287,-0.22151376,0.0,0.0,0.0
2026-05-10 20:52:57.130,156,0.244449535,-1.2117737,-0.06607798125,0.0,0.0,0.0
2026-05-10 20:52:57.140,157,0.16922018000000003,-1.2730887,-0.014266055,0.0,0.0,0.0
2026-05-10 20:52:57.150,158,0.16922018,-1.2730887,-0.014266055,0.0,0.0,0.0
2026-05-10 20:52:57.160,159,0.16922018000000003,-1.2730887,-0.014266055,0.0,0.0,0.0
2026-05-10 20:52:57.170,160,0.16922018000000003,-1.2730887,-0.014266055,0.0,0.0,0.0
2026-05-10 20:52:57.180,161,0.16922018000000003,-1.2730887,-0.014266055,0.0,0.0,0.0
2026-05-10 20:52:57.190,162,0.16922018,-1.2730887,-0.014266055,0.0,0.0,0.0
2026-05-10 20:52:57.200,163,0.16922018000000003,-1.2730887,-0.014266055,0.0,0.0,0.0
2026-05-10 20:52:57.210,164,0.16922018000000003,-1.2730887,-0.014266055,0.0,0.0,0.0
2026-05-10 20:52:57.220,165,0.16922018,-1.2730887,-0.014266055,0.0,0.0,0.0
2026-05-10 20:52:57.230,166,0.16922018000000003,-1.2730887,-0.014266055,0.0,0.0,0.0
2026-05-10 20:52:57.240,167,0.16922018,-1.2730887,-0.014266055,0.0,0.0,0.0
2026-05-10 20:52:57.250,168,0.16922018000000003,-1.2730887,-0.014266055,0.0,0.0,0.0
2026-05-10 20:52:57.260,169,0.16922018000000003,-1.2730887,-0.014266055,0.0,0.0,0.0
2026-05-10 20:52:57.270,170,0.16922018,-1.2730887,-0.014266055,0.0,0.0,0.0
2026-05-10 20:52:57.280,171,0.16922018000000003,-1.2730887,-0.014266055,0.0,0.0,0.0
2026-05-10 20:52:57.290,172,0.16922018,-1.2730887,-0.014266055,0.0,0.0,0.0
2026-05-10 20:52:57.300,173,0.06816003999999999,-1.3721712333333331,0.09303262166666666,0.0,0.0,0.0
2026-05-10 20:52:57.310,174,0.01762997,-1.4217125,0.14668196,0.0,0.0,0.0
2026-05-10 20:52:57.320,175,-0.013994647500000002,-1.4775496499999998,0.253054295,0.0,0.0,0.0
2026-05-10 20:52:57.330,176,-0.10886849999999999,-1.6450611000000002,0.5721713,0.0,0.0,0.0
2026-05-10 20:52:57.340,177,-0.10886849999999999,-1.6450611000000002,0.5721713,0.0,0.0,0.0
2026-05-10 20:52:57.350,178,-0.1264526,-1.6849694,0.68419725,0.0,0.0,0.0
2026-05-10 20:52:57.360,179,-0.1440367,-1.7248776999999997,0.7962232,0.0,0.0,0.0
2026-05-10 20:52:57.370,180,-0.1440367,-1.7248777,0.7962232,0.0,0.0,0.0
2026-05-10 20:52:57.380,181,-0.1440367,-1.7248776999999997,0.7962232,0.0,0.0,0.0
2026-05-10 20:52:57.390,182,-0.16989297,-1.7619826666666665,0.8696890666666667,0.0,0.0,0.0
2026-05-10 20:52:57.400,183,-0.22160551,-1.8361926,1.0166208,0.0,0.0,0.0
2026-05-10 20:52:57.410,184,-0.22160550999999998,-1.8361925999999997,1.0166208,0.0,0.0,0.0
2026-05-10 20:52:57.420,185,-0.22160550999999998,-1.8361925999999997,1.0166208,0.0,0.0,0.0
2026-05-10 20:52:57.430,186,-0.22160551,-1.8361926,1.0166208,0.0,0.0,0.0
2026-05-10 20:52:57.440,187,-0.22160550999999998,-1.8361925999999997,1.0166208,0.0,0.0,0.0
2026-05-10 20:52:57.450,188,-0.22160550999999998,-1.8361925999999997,1.0166208,0.0,0.0,0.0
2026-05-10 20:52:57.460,189,-0.35198775,-1.9235474,1.2039756,0.0,0.0,0.0
2026-05-10 20:52:57.470,190,-0.35198775,-1.9235473999999997,1.2039756,0.0,0.0,0.0
2026-05-10 20:52:57.480,191,-0.527316525,-1.94928905,1.2801759,0.0,0.0,0.0
2026-05-10 20:52:57.490,192,-0.7026453,-1.9750307000000002,1.3563762,0.0,0.0,0.0
2026-05-10 20:52:57.500,193,-0.7026453,-1.9750307000000002,1.3563762,0.0,0.0,0.0
2026-05-10 20:52:57.510,194,-0.7026453,-1.9750307,1.3563762,0.0,0.0,0.0
2026-05-10 20:52:57.520,195,-0.7026453,-1.9750307000000002,1.3563762,0.0,0.0,0.0
2026-05-10 20:52:57.530,196,-0.7026453,-1.9750307000000002,1.3563762,0.0,0.0,0.0
2026-05-10 20:52:57.540,197,-0.7026453,-1.9750307,1.3563762,0.0,0.0,0.0
2026-05-10 20:52:57.550,198,-0.7026453,-1.9750307000000002,1.3563762,0.0,0.0,0.0
2026-05-10 20:52:57.560,199,-0.96921255,-1.9205964,1.4193196000000001,0.0,0.0,0.0
2026-05-10 20:52:57.570,200,-1.2357798,-1.8661620999999997,1.4822630000000003,0.0,0.0,0.0
2026-05-10 20:52:57.580,201,-1.2357798,-1.8661620999999997,1.4822630000000003,0.0,0.0,0.0
2026-05-10 20:52:57.590,202,-1.2357798,-1.8661621,1.482263,0.0,0.0,0.0
2026-05-10 20:52:57.600,203,-1.2357798,-1.8661620999999997,1.4822630000000003,0.0,0.0,0.0
2026-05-10 20:52:57.610,204,-1.2357798,-1.8661621,1.482263,0.0,0.0,0.0
2026-05-10 20:52:57.620,205,-1.4495718666666668,-1.7724412999999999,1.4891233333333336,0.0,0.0,0.0
2026-05-10 20:52:57.630,206,-1.5564679,-1.7255809,1.4925535,0.0,0.0,0.0
2026-05-10 20:52:57.640,207,-1.5564679000000001,-1.7255809,1.4925535000000003,0.0,0.0,0.0
2026-05-10 20:52:57.650,208,-1.5564679000000001,-1.7255809,1.4925535000000003,0.0,0.0,0.0
2026-05-10 20:52:57.660,209,-1.5564679,-1.7255809,1.4925535,0.0,0.0,0.0
2026-05-10 20:52:57.670,210,-1.5564679000000001,-1.7255809,1.4925535000000003,0.0,0.0,0.0
2026-05-10 20:52:57.680,211,-1.5564679,-1.7255809,1.4925535,0.0,0.0,0.0
2026-05-10 20:52:57.690,212,-1.5564679000000001,-1.7255809,1.4925535000000003,0.0,0.0,0.0
2026-05-10 20:52:57.700,213,-1.5564679000000001,-1.7255809,1.4925535000000003,0.0,0.0,0.0
2026-05-10 20:52:57.710,214,-1.5564679,-1.7255809,1.4925535,0.0,0.0,0.0
2026-05-10 20:52:57.720,215,-1.6874617,-1.651682,1.5379205,0.0,0.0,0.0
2026-05-10 20:52:57.730,216,-1.6874617,-1.651682,1.5379205,0.0,0.0,0.0
2026-05-10 20:52:57.740,217,-1.6874617,-1.651682,1.5379205,0.0,0.0,0.0
2026-05-10 20:52:57.750,218,-1.6874617,-1.651682,1.5379205,0.0,0.0,0.0
2026-05-10 20:52:57.760,219,-1.6874617,-1.651682,1.5379205,0.0,0.0,0.0
2026-05-10 20:52:57.770,220,-1.6874617,-1.651682,1.5379205,0.0,0.0,0.0
2026-05-10 20:52:57.780,221,-1.6686035,-1.3865087,1.6894700333333332,0.0,0.0,0.0
2026-05-10 20:52:57.790,222,-1.6703059333333332,-1.3082212333333334,1.7032976666666666,0.0,0.0,0.0
2026-05-10 20:52:57.800,223,-1.671361,-1.2850153,1.7045871,0.0,0.0,0.0
2026-05-10 20:52:57.810,224,-2.3281345,-1.4456727999999999,1.4405656999999998,0.0,0.0,0.0
2026-05-10 20:52:57.820,225,-2.3281345,-1.4456727999999999,1.4405656999999998,0.0,0.0,0.0
2026-05-10 20:52:57.830,226,-2.3281345,-1.4456728,1.4405657,0.0,0.0,0.0
2026-05-10 20:52:57.840,227,-2.3281345,-1.4456727999999999,1.4405656999999998,0.0,0.0,0.0
2026-05-10 20:52:57.850,228,-2.3281345,-1.4456728,1.4405657,0.0,0.0,0.0
2026-05-10 20:52:57.860,229,-2.3281345,-1.4456727999999999,1.4405656999999998,0.0,0.0,0.0
2026-05-10 20:52:57.870,230,-2.3281345,-1.4456727999999999,1.4405656999999998,0.0,0.0,0.0
2026-05-10 20:52:57.880,231,-2.3281345,-1.4456728,1.4405657,0.0,0.0,0.0
2026-05-10 20:52:57.890,232,-2.4660550000000003,-1.4330632,1.4005402333333334,0.0,0.0,0.0
2026-05-10 20:52:57.900,233,-2.741896,-1.407844,1.3204893,0.0,0.0,0.0
2026-05-10 20:52:57.910,234,-2.741896,-1.407844,1.3204893,0.0,0.0,0.0
2026-05-10 20:52:57.920,235,-2.741896,-1.407844,1.3204893,0.0,0.0,0.0
2026-05-10 20:52:57.930,236,-2.741896,-1.407844,1.3204893,0.0,0.0,0.0
2026-05-10 20:52:57.940,237,-2.741896,-1.407844,1.3204893,0.0,0.0,0.0
2026-05-10 20:52:57.950,238,-3.4784914,-1.1593934666666668,1.0622528333333332,0.0,0.0,0.0
2026-05-10 20:52:57.960,239,-3.8467891,-1.0351682,0.9331346,0.0,0.0,0.0
2026-05-10 20:52:57.970,240,-3.8467891,-1.0351682,0.9331346000000001,0.0,0.0,0.0
2026-05-10 20:52:57.980,241,-3.8440366,-0.9357759725,0.73267583,0.0,0.0,0.0
2026-05-10 20:52:57.990,242,-3.7776758999999998,-0.8162028766666666,0.5550815466666666,0.0,0.0,0.0
2026-05-10 20:52:58.000,243,-3.7449543,-0.7729817,0.4996942,0.0,0.0,0.0
2026-05-10 20:52:58.010,244,-3.7449543,-0.7729817,0.4996942,0.0,0.0,0.0
2026-05-10 20:52:58.020,245,-3.7449543,-0.7729817,0.4996942,0.0,0.0,0.0
2026-05-10 20:52:58.030,246,-3.7449543,-0.7729817,0.4996942,0.0,0.0,0.0
2026-05-10 20:52:58.040,247,-3.7449543,-0.7729817,0.4996942,0.0,0.0,0.0
2026-05-10 20:52:58.050,248,-3.7449543,-0.7729817,0.4996942,0.0,0.0,0.0
2026-05-10 20:52:58.060,249,-3.7449543,-0.7729817,0.4996942,0.0,0.0,0.0
2026-05-10 20:52:58.070,250,-3.7449543,-0.7729817,0.4996942,0.0,0.0,0.0
2026-05-10 20:52:58.080,251,-3.7449543,-0.7729817,0.4996942,0.0,0.0,0.0
2026-05-10 20:52:58.090,252,-3.7449543,-0.7729817,0.4996942,0.0,0.0,0.0
2026-05-10 20:52:58.100,253,-3.7449543,-0.7729817,0.4996942,0.0,0.0,0.0
2026-05-10 20:52:58.110,254,-3.7449543,-0.7729817,0.4996942,0.0,0.0,0.0
2026-05-10 20:52:58.120,255,-3.7449543,-0.7729817,0.4996942,0.0,0.0,0.0
2026-05-10 20:52:58.130,256,-3.7449543,-0.7729817,0.4996942,0.0,0.0,0.0
2026-05-10 20:52:58.140,257,-3.7449543,-0.7729817,0.4996942,0.0,0.0,0.0
2026-05-10 20:52:58.150,258,-3.499694,-0.42079510000000003,0.09766056,0.0,0.0,0.0
2026-05-10 20:52:58.160,259,-3.5746176,-0.16238531,-0.032522935,0.0,0.0,0.0
2026-05-10 20:52:58.170,260,-3.5746176,-0.16238531,-0.032522935,0.0,0.0,0.0
2026-05-10 20:52:58.180,261,-3.5746176,-0.16238531,-0.032522935,0.0,0.0,0.0
2026-05-10 20:52:58.190,262,-3.5746176,-0.16238531,-0.032522935,0.0,0.0,0.0
2026-05-10 20:52:58.200,263,-3.5746176,-0.16238531,-0.032522935,0.0,0.0,0.0
2026-05-10 20:52:58.210,264,-3.5949693333333332,-0.13309377666666666,-0.016788990333333333,0.0,0.0,0.0
2026-05-10 20:52:58.220,265,-3.5804739999999997,-0.092912845,0.060550457,0.0,0.0,0.0
2026-05-10 20:52:58.230,266,-3.5252752,-0.11131498,0.106422015,0.0,0.0,0.0
2026-05-10 20:52:58.240,267,-3.5252752,-0.11131498,0.106422015,0.0,0.0,0.0
2026-05-10 20:52:58.250,268,-3.5252752,-0.11131498,0.106422015,0.0,0.0,0.0
2026-05-10 20:52:58.260,269,-3.5252752,-0.11131498,0.106422015,0.0,0.0,0.0
2026-05-10 20:52:58.270,270,-3.4108358666666665,-0.15419469,0.14872578333333333,0.0,0.0,0.0
2026-05-10 20:52:58.280,271,-3.1819572,-0.23995411,0.23333332,0.0,0.0,0.0
2026-05-10 20:52:58.290,272,-3.0491691999999997,-0.2779459633333333,0.25497960000000003,0.0,0.0,0.0
2026-05-10 20:52:58.300,273,-2.9163812,-0.31593781666666665,0.27662588,0.0,0.0,0.0
2026-05-10 20:52:58.310,274,-2.7835932,-0.35392967,0.29827216,0.0,0.0,0.0
2026-05-10 20:52:58.320,275,-2.7835932,-0.35392967,0.29827216,0.0,0.0,0.0
2026-05-10 20:52:58.330,276,-2.7835932,-0.35392967000000003,0.29827216,0.0,0.0,0.0
2026-05-10 20:52:58.340,277,-2.7835932,-0.35392967000000003,0.29827216,0.0,0.0,0.0
2026-05-10 20:52:58.350,278,-2.7835932,-0.35392967000000003,0.29827216,0.0,0.0,0.0
2026-05-10 20:52:58.360,279,-2.4401681,-0.4051987799999999,0.2634098,0.0,0.0,0.0
2026-05-10 20:52:58.370,280,-2.3709785,-0.42923164999999996,0.27321866,0.0,0.0,0.0
2026-05-10 20:52:58.380,281,-2.1634097,-0.50133026,0.30264524,0.0,0.0,0.0
2026-05-10 20:52:58.390,282,-2.10412845,-0.54087918,0.34805809,0.0,0.0,0.0
2026-05-10 20:52:58.400,283,-2.0448472,-0.5804281,0.39347094,0.0,0.0,0.0
2026-05-10 20:52:58.410,284,-2.0448472,-0.5804281,0.39347094,0.0,0.0,0.0
2026-05-10 20:52:58.420,285,-2.0448472,-0.5804281,0.39347094,0.0,0.0,0.0
2026-05-10 20:52:58.430,286,-2.0448472,-0.5804281,0.39347094,0.0,0.0,0.0
2026-05-10 20:52:58.440,287,-2.033302825,-0.60002674,0.4247668225,0.0,0.0,0.0
2026-05-10 20:52:58.450,288,-1.9986697,-0.65882266,0.51865447,0.0,0.0,0.0
2026-05-10 20:52:58.460,289,-1.9986697,-0.65882266,0.51865447,0.0,0.0,0.0
2026-05-10 20:52:58.470,290,-1.9986697,-0.65882266,0.51865447,0.0,0.0,0.0
2026-05-10 20:52:58.480,291,-1.9941233,-0.6983741133333333,0.5938124233333334,0.0,0.0,0.0
2026-05-10 20:52:58.490,292,-1.9918501,-0.71814984,0.6313914,0.0,0.0,0.0
2026-05-10 20:52:58.500,293,-1.9948012,-0.8008104,0.7617737,0.0,0.0,0.0
2026-05-10 20:52:58.510,294,-1.9948012000000002,-0.8008104,0.7617737,0.0,0.0,0.0
2026-05-10 20:52:58.520,295,-1.9948012,-0.8008104,0.7617737,0.0,0.0,0.0
2026-05-10 20:52:58.530,296,-1.9948012000000002,-0.8008104,0.7617737,0.0,0.0,0.0
2026-05-10 20:52:58.540,297,-2.041824533333333,-0.9614016666666667,0.9108052999999999,0.0,0.0,0.0
2026-05-10 20:52:58.550,298,-2.0653362,-1.0416973,0.9853210999999998,0.0,0.0,0.0
2026-05-10 20:52:58.560,299,-2.0653362,-1.0416973,0.9853211,0.0,0.0,0.0
2026-05-10 20:52:58.570,300,-2.0653362,-1.0416973,0.9853210999999998,0.0,0.0,0.0
2026-05-10 20:52:58.580,301,-2.0653362,-1.0416973,0.9853210999999998,0.0,0.0,0.0
2026-05-10 20:52:58.590,302,-2.0653362,-1.0416973,0.9853211,0.0,0.0,0.0
2026-05-10 20:52:58.600,303,-2.0653362,-1.0416973,0.9853210999999998,0.0,0.0,0.0
2026-05-10 20:52:58.610,304,-2.08332935,-1.060733975,1.004613925,0.0,0.0,0.0
2026-05-10 20:52:58.620,305,-2.1373088,-1.117844,1.0624924,0.0,0.0,0.0
2026-05-10 20:52:58.630,306,-2.1373088,-1.117844,1.0624924,0.0,0.0,0.0
2026-05-10 20:52:58.640,307,-2.1373088,-1.117844,1.0624924,0.0,0.0,0.0
2026-05-10 20:52:58.650,308,-2.1373088,-1.117844,1.0624924,0.0,0.0,0.0
2026-05-10 20:52:58.660,309,-2.3881805,-1.1874617,1.098578,0.0,0.0,0.0
2026-05-10 20:52:58.670,310,-2.3881805,-1.1874617,1.098578,0.0,0.0,0.0
2026-05-10 20:52:58.680,311,-2.3881805,-1.1874617,1.098578,0.0,0.0,0.0
2026-05-10 20:52:58.690,312,-2.491999325,-1.2352484750000001,1.0705964,0.0,0.0,0.0
2026-05-10 20:52:58.700,313,-2.5266056,-1.2511774,1.0612692,0.0,0.0,0.0
2026-05-10 20:52:58.710,314,-2.5266056,-1.2511774,1.0612692,0.0,0.0,0.0
2026-05-10 20:52:58.720,315,-2.5266056,-1.2511774,1.0612692,0.0,0.0,0.0
2026-05-10 20:52:58.730,316,-2.5266056,-1.2511774,1.0612692,0.0,0.0,0.0
2026-05-10 20:52:58.740,317,-2.5266056,-1.2511774,1.0612692,0.0,0.0,0.0
2026-05-10 20:52:58.750,318,-2.5266056,-1.2511774,1.0612692,0.0,0.0,0.0
2026-05-10 20:52:58.760,319,-2.5266056,-1.2511774,1.0612692,0.0,0.0,0.0
2026-05-10 20:52:58.770,320,-2.5266056,-1.2511774,1.0612692,0.0,0.0,0.0
2026-05-10 20:52:58.780,321,-2.5266056,-1.2511774,1.0612692,0.0,0.0,0.0
2026-05-10 20:52:58.790,322,-2.5365903,-1.3392508,0.9877676,0.0,0.0,0.0
2026-05-10 20:52:58.800,323,-2.5365903,-1.3392508,0.9877676000000001,0.0,0.0,0.0
2026-05-10 20:52:58.810,324,-2.5365903,-1.3392508,0.9877676000000001,0.0,0.0,0.0
2026-05-10 20:52:58.820,325,-2.5365903,-1.3392508,0.9877676000000001,0.0,0.0,0.0
2026-05-10 20:52:58.830,326,-2.5365903,-1.3392508,0.9877676,0.0,0.0,0.0
2026-05-10 20:52:58.840,327,-2.4986697,-1.3732263333333332,0.9298674666666665,0.0,0.0,0.0
2026-05-10 20:52:58.850,328,-2.4797094,-1.3902141,0.9009174,0.0,0.0,0.0
2026-05-10 20:52:58.860,329,-2.484476225,-1.387717925,0.915928875,0.0,0.0,0.0
2026-05-10 20:52:58.870,330,-2.4987767,-1.3802294,0.9609633,0.0,0.0,0.0
2026-05-10 20:52:58.880,331,-2.4987767,-1.3802294,0.9609633,0.0,0.0,0.0
2026-05-10 20:52:58.890,332,-2.4987767,-1.3802294,0.9609633,0.0,0.0,0.0
2026-05-10 20:52:58.900,333,-2.4958511,-1.4015648,1.0068349,0.0,0.0,0.0
2026-05-10 20:52:58.910,334,-2.4943883,-1.4122325,1.0297707,0.0,0.0,0.0
2026-05-10 20:52:58.920,335,-2.4943883,-1.4122325,1.0297707,0.0,0.0,0.0
2026-05-10 20:52:58.930,336,-2.4943883,-1.4122325,1.0297707,0.0,0.0,0.0
2026-05-10 20:52:58.940,337,-2.4943883,-1.4122325,1.0297707,0.0,0.0,0.0
2026-05-10 20:52:58.950,338,-2.4943883,-1.4122325,1.0297707,0.0,0.0,0.0
2026-05-10 20:52:58.960,339,-2.3677524,-1.5584098333333334,1.2977217,0.0,0.0,0.0
2026-05-10 20:52:58.970,340,-2.340673,-1.5740062,1.3226299,0.0,0.0,0.0
2026-05-10 20:52:58.980,341,-2.2899083333333334,-1.5756371333333334,1.3421304333333335,0.0,0.0,0.0
2026-05-10 20:52:58.990,342,-2.264526,-1.5764526,1.3518807,0.0,0.0,0.0
2026-05-10 20:52:59.000,343,-2.264526,-1.5764526000000003,1.3518807,0.0,0.0,0.0
2026-05-10 20:52:59.010,344,-2.1634097,-1.569419,1.3406727,0.0,0.0,0.0
2026-05-10 20:52:59.020,345,-1.9442455999999997,-1.6148828,1.2476044333333334,0.0,0.0,0.0
2026-05-10 20:52:59.030,346,-1.5059174000000002,-1.7058104,1.0614679,0.0,0.0,0.0
2026-05-10 20:52:59.040,347,-1.374143733333333,-1.7068297333333333,1.0193374333333334,0.0,0.0,0.0
2026-05-10 20:52:59.050,348,-1.0812385,-1.6650305,0.93608564,0.0,0.0,0.0
2026-05-10 20:52:59.060,349,-1.0812385,-1.6650305,0.93608564,0.0,0.0,0.0
2026-05-10 20:52:59.070,350,-1.0812385,-1.6650305,0.93608564,0.0,0.0,0.0
2026-05-10 20:52:59.080,351,-1.0812385,-1.6650305,0.93608564,0.0,0.0,0.0
2026-05-10 20:52:59.090,352,-1.0812385,-1.6650305,0.93608564,0.0,0.0,0.0
2026-05-10 20:52:59.100,353,-1.0812385,-1.6650305,0.93608564,0.0,0.0,0.0
2026-05-10 20:52:59.110,354,-1.0812385,-1.6650305,0.93608564,0.0,0.0,0.0
2026-05-10 20:52:59.120,355,-1.0812385,-1.6650305,0.93608564,0.0,0.0,0.0
2026-05-10 20:52:59.130,356,-1.0324108,-1.6374769999999998,0.9148470933333334,0.0,0.0,0.0
2026-05-10 20:52:59.140,357,-0.9347554,-1.58237,0.87237,0.0,0.0,0.0
2026-05-10 20:52:59.150,358,-0.7615341600000001,-1.5418603333333334,0.8205861333333333,0.0,0.0,0.0
2026-05-10 20:52:59.160,359,-0.5694495466666667,-1.5176707666666667,0.7683333600000001,0.0,0.0,0.0
2026-05-10 20:52:59.170,360,-0.51671255,-1.5157034,0.75515294,0.0,0.0,0.0
2026-05-10 20:52:59.180,361,-0.51671255,-1.5157034000000003,0.75515294,0.0,0.0,0.0
2026-05-10 20:52:59.190,362,-0.51671255,-1.5157034000000003,0.75515294,0.0,0.0,0.0
2026-05-10 20:52:59.200,363,-0.51671255,-1.5157034000000003,0.75515294,0.0,0.0,0.0
2026-05-10 20:52:59.210,364,-0.46496433333333337,-1.5165189000000001,0.7423088933333334,0.0,0.0,0.0
2026-05-10 20:52:59.220,365,-0.31827217750000003,-1.487083375,0.6822171349999999,0.0,0.0,0.0
2026-05-10 20:52:59.230,366,-0.18868501000000001,-1.3938838,0.57900614,0.0,0.0,0.0
2026-05-10 20:52:59.240,367,-0.18868501000000001,-1.3938838,0.57900614,0.0,0.0,0.0
2026-05-10 20:52:59.250,368,-0.18868501,-1.3938838,0.57900614,0.0,0.0,0.0
2026-05-10 20:52:59.260,369,-0.18868501000000001,-1.3938838,0.57900614,0.0,0.0,0.0
2026-05-10 20:52:59.270,370,-0.18868501,-1.3938838,0.57900614,0.0,0.0,0.0
2026-05-10 20:52:59.280,371,-0.18868501000000001,-1.3938838,0.57900614,0.0,0.0,0.0
2026-05-10 20:52:59.290,372,-0.18868501000000001,-1.3938838,0.57900614,0.0,0.0,0.0
2026-05-10 20:52:59.300,373,-0.13983180034999998,-1.37466745,0.526406745,0.0,0.0,0.0
2026-05-10 20:52:59.310,374,0.0067278286,-1.3170184,0.36860856,0.0,0.0,0.0
2026-05-10 20:52:59.320,375,0.0067278286,-1.3170184,0.36860856,0.0,0.0,0.0
2026-05-10 20:52:59.330,376,0.0067278286,-1.3170184,0.36860856,0.0,0.0,0.0
2026-05-10 20:52:59.340,377,0.0067278286,-1.3170184,0.36860856,0.0,0.0,0.0
2026-05-10 20:52:59.350,378,0.0067278286,-1.3170184,0.36860856,0.0,0.0,0.0
2026-05-10 20:52:59.360,379,0.0067278286,-1.3170184,0.36860856,0.0,0.0,0.0
2026-05-10 20:52:59.370,380,0.0067278286,-1.3170184,0.36860856,0.0,0.0,0.0
2026-05-10 20:52:59.380,381,0.0067278286,-1.3170184,0.36860856,0.0,0.0,0.0
2026-05-10 20:52:59.390,382,0.0067278286,-1.3170184,0.36860856,0.0,0.0,0.0
2026-05-10 20:52:59.400,383,0.0067278286,-1.3170184,0.36860856,0.0,0.0,0.0
2026-05-10 20:52:59.410,384,0.0067278286,-1.3170184,0.36860856,0.0,0.0,0.0
2026-05-10 20:52:59.420,385,0.0067278286,-1.3170184,0.36860856,0.0,0.0,0.0
2026-05-10 20:52:59.430,386,0.0067278286,-1.3170184,0.36860856,0.0,0.0,0.0
2026-05-10 20:52:59.440,387,0.08575942286666667,-1.3121254,0.34386849999999997,0.0,0.0,0.0
2026-05-10 20:52:59.450,388,0.12527522,-1.3096789,0.33149847,0.0,0.0,0.0
2026-05-10 20:52:59.460,389,0.12527522,-1.3096789,0.33149847,0.0,0.0,0.0
2026-05-10 20:52:59.470,390,0.516315,-1.2203822,0.27879205,0.0,0.0,0.0
2026-05-10 20:52:59.480,391,0.56208335,-1.1866934,0.26938838,0.0,0.0,0.0
2026-05-10 20:52:59.490,392,0.6993884,-1.085627,0.24117737000000003,0.0,0.0,0.0
2026-05-10 20:52:59.500,393,0.6993884,-1.085627,0.24117737000000003,0.0,0.0,0.0
2026-05-10 20:52:59.510,394,0.89633024,-0.9538226,0.20285933,0.0,0.0,0.0
2026-05-10 20:52:59.520,395,0.8963302399999998,-0.9538226,0.20285933,0.0,0.0,0.0
2026-05-10 20:52:59.530,396,0.8963302399999998,-0.9538226,0.20285933,0.0,0.0,0.0
2026-05-10 20:52:59.540,397,0.89633024,-0.9538226,0.20285933,0.0,0.0,0.0
2026-05-10 20:52:59.550,398,0.8963302399999998,-0.9538226,0.20285933,0.0,0.0,0.0
2026-05-10 20:52:59.560,399,0.89633024,-0.9538226,0.20285933,0.0,0.0,0.0
2026-05-10 20:52:59.570,400,1.0124668799999998,-0.8713251733333333,0.15813965,0.0,0.0,0.0
2026-05-10 20:52:59.580,401,1.0705352,-0.83007646,0.13577981,0.0,0.0,0.0
2026-05-10 20:52:59.590,402,1.0705352,-0.83007646,0.13577981,0.0,0.0,0.0
2026-05-10 20:52:59.600,403,1.0705352,-0.83007646,0.13577981,0.0,0.0,0.0
2026-05-10 20:52:59.610,404,1.0705352,-0.83007646,0.13577981,0.0,0.0,0.0
2026-05-10 20:52:59.620,405,1.0705352,-0.83007646,0.13577981,0.0,0.0,0.0
2026-05-10 20:52:59.630,406,1.0705352,-0.83007646,0.13577981,0.0,0.0,0.0
2026-05-10 20:52:59.640,407,1.2382925,-0.60900612,0.035163097866666666,0.0,0.0,0.0
2026-05-10 20:52:59.650,408,1.3038685,-0.52405196,0.0053975536,0.0,0.0,0.0
2026-05-10 20:52:59.660,409,1.3038685,-0.52405196,0.0053975536,0.0,0.0,0.0
2026-05-10 20:52:59.670,410,1.3038685,-0.52405196,0.0053975536,0.0,0.0,0.0
2026-05-10 20:52:59.680,411,1.3038685,-0.52405196,0.0053975536,0.0,0.0,0.0
2026-05-10 20:52:59.690,412,1.3038685,-0.52405196,0.0053975536,0.0,0.0,0.0
2026-05-10 20:52:59.700,413,1.3038685,-0.52405196,0.0053975536,0.0,0.0,0.0
2026-05-10 20:52:59.710,414,1.3038685,-0.52405196,0.0053975536,0.0,0.0,0.0
2026-05-10 20:52:59.720,415,1.3124312,-0.484143715,0.0015749236499999998,0.0,0.0,0.0
2026-05-10 20:52:59.730,416,1.3209939,-0.44423547,-0.0022477063,0.0,0.0,0.0
2026-05-10 20:52:59.740,417,1.3209939,-0.44423547,-0.0022477063,0.0,0.0,0.0
2026-05-10 20:52:59.750,418,1.3209939,-0.44423547,-0.0022477063,0.0,0.0,0.0
2026-05-10 20:52:59.760,419,1.3209939,-0.44423547,-0.0022477063,0.0,0.0,0.0
2026-05-10 20:52:59.770,420,1.3209939,-0.44423547,-0.0022477063,0.0,0.0,0.0
2026-05-10 20:52:59.780,421,1.3209939,-0.44423547,-0.0022477063,0.0,0.0,0.0
2026-05-10 20:52:59.790,422,1.328333325,-0.375198765,-0.004839449274999999,0.0,0.0,0.0
2026-05-10 20:52:59.800,423,1.3516105999999999,-0.3192609533333333,0.008904178933333333,0.0,0.0,0.0
2026-05-10 20:52:59.810,424,1.3932722,-0.2534098,0.038119264,0.0,0.0,0.0
2026-05-10 20:52:59.820,425,1.3932722,-0.2534098,0.038119264,0.0,0.0,0.0
2026-05-10 20:52:59.830,426,1.3932722,-0.2534098,0.038119264,0.0,0.0,0.0
2026-05-10 20:52:59.840,427,1.3932722,-0.2534098,0.038119264,0.0,0.0,0.0
2026-05-10 20:52:59.850,428,1.3932722,-0.2534098,0.038119264,0.0,0.0,0.0
2026-05-10 20:52:59.860,429,1.3932722,-0.2534098,0.038119264,0.0,0.0,0.0
2026-05-10 20:52:59.870,430,1.4025955250000002,-0.2027217175,0.046915138,0.0,0.0,0.0
2026-05-10 20:52:59.880,431,1.4057033,-0.18582569000000002,0.049847096,0.0,0.0,0.0
2026-05-10 20:52:59.890,432,1.4057033,-0.18582569000000002,0.049847096,0.0,0.0,0.0
2026-05-10 20:52:59.900,433,1.4057033,-0.18582569,0.049847096,0.0,0.0,0.0
2026-05-10 20:52:59.910,434,1.4057033,-0.18582569000000002,0.049847096,0.0,0.0,0.0
2026-05-10 20:52:59.920,435,1.4725841,-0.14261468,0.08746178,0.0,0.0,0.0
2026-05-10 20:52:59.930,436,1.4725841,-0.14261468,0.08746178,0.0,0.0,0.0
2026-05-10 20:52:59.940,437,1.5079561666666665,-0.11991335666666665,0.10356779,0.0,0.0,0.0
2026-05-10 20:52:59.950,438,1.5787003,-0.07451071,0.13577981,0.0,0.0,0.0
2026-05-10 20:52:59.960,439,1.5787003000000002,-0.07451071,0.13577981,0.0,0.0,0.0
2026-05-10 20:52:59.970,440,1.6235015499999998,0.044449535000000005,0.17043577,0.0,0.0,0.0
2026-05-10 20:52:59.980,441,1.6683028,0.16340978,0.20509173,0.0,0.0,0.0
2026-05-10 20:52:59.990,442,1.6355097,0.17787971666666666,0.3503211133333333,0.0,0.0,0.0
2026-05-10 20:53:00.000,443,1.6331346,0.17461774,0.37155965,0.0,0.0,0.0
2026-05-10 20:53:00.010,444,1.6331346,0.17461774,0.37155965,0.0,0.0,0.0
2026-05-10 20:53:00.020,445,1.6331346,0.17461774,0.37155965,0.0,0.0,0.0
2026-05-10 20:53:00.030,446,1.6331346,0.17461774,0.37155965,0.0,0.0,0.0
2026-05-10 20:53:00.040,447,1.6331346,0.17461774,0.37155965,0.0,0.0,0.0
2026-05-10 20:53:00.050,448,1.5633028,0.15331803,0.44108564,0.0,0.0,0.0
2026-05-10 20:53:00.060,449,1.5418298000000001,0.15365443,0.4431906366666667,0.0,0.0,0.0
2026-05-10 20:53:00.070,450,1.4988838,0.15432723,0.44740063,0.0,0.0,0.0
2026-05-10 20:53:00.080,451,1.4988838,0.15432723,0.44740063,0.0,0.0,0.0
2026-05-10 20:53:00.090,452,1.4988838,0.15432723,0.44740063,0.0,0.0,0.0
2026-05-10 20:53:00.100,453,1.4988838,0.15432723,0.44740063,0.0,0.0,0.0
2026-05-10 20:53:00.110,454,1.4988838,0.15432723,0.44740063,0.0,0.0,0.0
2026-05-10 20:53:00.120,455,1.4100560666666666,0.15562182333333333,0.4247706566666667,0.0,0.0,0.0
2026-05-10 20:53:00.130,456,1.3236442666666666,0.13417941333333336,0.3736289566666667,0.0,0.0,0.0
2026-05-10 20:53:00.140,457,1.3026453,0.12313456,0.3537156,0.0,0.0,0.0
2026-05-10 20:53:00.150,458,1.3026453,0.12313456,0.35371559999999996,0.0,0.0,0.0
2026-05-10 20:53:00.160,459,1.3026453,0.12313456,0.35371559999999996,0.0,0.0,0.0
2026-05-10 20:53:00.170,460,1.3026453,0.12313456,0.35371559999999996,0.0,0.0,0.0
2026-05-10 20:53:00.180,461,1.3026453,0.12313456,0.35371559999999996,0.0,0.0,0.0
2026-05-10 20:53:00.190,462,1.287637625,0.1139602475,0.33875765,0.0,0.0,0.0
2026-05-10 20:53:00.200,463,1.2426146,0.08643731,0.2938838,0.0,0.0,0.0
2026-05-10 20:53:00.210,464,1.2426146,0.08643731,0.2938838,0.0,0.0,0.0
2026-05-10 20:53:00.220,465,1.2426146,0.08643731,0.2938838,0.0,0.0,0.0
2026-05-10 20:53:00.230,466,1.2426146,0.08643731,0.2938838,0.0,0.0,0.0
2026-05-10 20:53:00.240,467,1.2426146,0.08643731,0.2938838,0.0,0.0,0.0
2026-05-10 20:53:00.250,468,1.2301783333333334,0.07311926666666667,0.28161569999999997,0.0,0.0,0.0
2026-05-10 20:53:00.260,469,1.2053058,0.04648317999999999,0.2570795,0.0,0.0,0.0
2026-05-10 20:53:00.270,470,1.2053058,0.04648317999999999,0.2570795,0.0,0.0,0.0
2026-05-10 20:53:00.280,471,1.2053058,0.04648317999999999,0.2570795,0.0,0.0,0.0
2026-05-10 20:53:00.290,472,1.2053058,0.04648317999999999,0.2570795,0.0,0.0,0.0
2026-05-10 20:53:00.300,473,1.2053058,0.04648317999999999,0.2570795,0.0,0.0,0.0
2026-05-10 20:53:00.310,474,1.2053058,0.04648318,0.2570795,0.0,0.0,0.0
2026-05-10 20:53:00.320,475,1.2053058,0.04648318,0.2570795,0.0,0.0,0.0
2026-05-10 20:53:00.330,476,1.1511774,-0.09591743,0.20845565,0.0,0.0,0.0
2026-05-10 20:53:00.340,477,1.135909825,-0.1159480125,0.2065214025,0.0,0.0,0.0
2026-05-10 20:53:00.350,478,0.8912386,-0.29928133,0.21681957,0.0,0.0,0.0
2026-05-10 20:53:00.360,479,0.8912386,-0.29928133,0.21681957,0.0,0.0,0.0
2026-05-10 20:53:00.370,480,0.8912386,-0.29928133,0.21681957,0.0,0.0,0.0
2026-05-10 20:53:00.380,481,0.8912386,-0.29928133,0.21681957,0.0,0.0,0.0
2026-05-10 20:53:00.390,482,0.8912386,-0.29928133,0.21681957,0.0,0.0,0.0
2026-05-10 20:53:00.400,483,0.8912386,-0.29928133,0.21681957,0.0,0.0,0.0
2026-05-10 20:53:00.410,484,0.8912386,-0.29928133,0.21681957,0.0,0.0,0.0
2026-05-10 20:53:00.420,485,0.8912386,-0.29928133,0.21681957,0.0,0.0,0.0
2026-05-10 20:53:00.430,486,0.8912386,-0.29928133,0.21681957,0.0,0.0,0.0
2026-05-10 20:53:00.440,487,0.73811924,-0.48818043,0.24169725,0.0,0.0,0.0
2026-05-10 20:53:00.450,488,0.73811924,-0.48818043000000005,0.24169725,0.0,0.0,0.0
2026-05-10 20:53:00.460,489,0.73811924,-0.48818043000000005,0.24169725,0.0,0.0,0.0
2026-05-10 20:53:00.470,490,0.73811924,-0.48818043000000005,0.24169725,0.0,0.0,0.0
2026-05-10 20:53:00.480,491,0.73811924,-0.48818043,0.24169725,0.0,0.0,0.0
2026-05-10 20:53:00.490,492,0.73811924,-0.48818043000000005,0.24169725,0.0,0.0,0.0
2026-05-10 20:53:00.500,493,0.73811924,-0.48818043000000005,0.24169725,0.0,0.0,0.0
2026-05-10 20:53:00.510,494,0.73811924,-0.48818043,0.24169725,0.0,0.0,0.0
2026-05-10 20:53:00.520,495,0.73811924,-0.48818043000000005,0.24169725,0.0,0.0,0.0
2026-05-10 20:53:00.530,496,0.73811924,-0.48818043000000005,0.24169725,0.0,0.0,0.0
2026-05-10 20:53:00.540,497,0.73811924,-0.48818043,0.24169725,0.0,0.0,0.0
2026-05-10 20:53:00.550,498,0.6537156133333334,-0.5799235433333334,0.25650867,0.0,0.0,0.0
2026-05-10 20:53:00.560,499,0.5216768666666667,-0.6780479266666667,0.27316006,0.0,0.0,0.0
2026-05-10 20:53:00.570,500,0.4767584,-0.70417434,0.2777829,0.0,0.0,0.0
2026-05-10 20:53:00.580,501,0.4767584,-0.7041743400000001,0.2777829,0.0,0.0,0.0
2026-05-10 20:53:00.590,502,0.4767584,-0.7041743400000001,0.2777829,0.0,0.0,0.0
2026-05-10 20:53:00.600,503,0.4767584,-0.7041743400000001,0.2777829,0.0,0.0,0.0
2026-05-10 20:53:00.610,504,0.4767584,-0.7041743400000001,0.2777829,0.0,0.0,0.0
2026-05-10 20:53:00.620,505,0.4767584,-0.70417434,0.2777829,0.0,0.0,0.0
2026-05-10 20:53:00.630,506,0.4767584,-0.7041743400000001,0.2777829,0.0,0.0,0.0
2026-05-10 20:53:00.640,507,0.4767584,-0.7041743400000001,0.2777829,0.0,0.0,0.0
2026-05-10 20:53:00.650,508,0.36697248,-0.7796177,0.28512233,0.0,0.0,0.0
2026-05-10 20:53:00.660,509,0.36697248,-0.7796177,0.28512233,0.0,0.0,0.0
2026-05-10 20:53:00.670,510,0.36697248,-0.7796177,0.28512233,0.0,0.0,0.0
2026-05-10 20:53:00.680,511,0.36697248,-0.7796176999999999,0.28512233,0.0,0.0,0.0
2026-05-10 20:53:00.690,512,0.36697248,-0.7796176999999999,0.28512233,0.0,0.0,0.0
2026-05-10 20:53:00.700,513,0.36697248,-0.7796176999999999,0.28512233,0.0,0.0,0.0
2026-05-10 20:53:00.710,514,0.26808867,-0.8552447,0.2905199,0.0,0.0,0.0
2026-05-10 20:53:00.720,515,0.26808867,-0.8552447,0.2905199,0.0,0.0,0.0
2026-05-10 20:53:00.730,516,0.26808867,-0.8552447,0.2905199,0.0,0.0,0.0
2026-05-10 20:53:00.740,517,0.26808867,-0.8552447,0.2905199,0.0,0.0,0.0
2026-05-10 20:53:00.750,518,0.26808867,-0.8552447,0.2905199,0.0,0.0,0.0
2026-05-10 20:53:00.760,519,-0.026192660999999996,-0.9748164999999999,0.35830277000000005,0.0,0.0,0.0
2026-05-10 20:53:00.770,520,-0.026192660999999996,-0.9748164999999999,0.35830277000000005,0.0,0.0,0.0
2026-05-10 20:53:00.780,521,-0.073527014,-1.0003006666666667,0.36098879333333334,0.0,0.0,0.0
2026-05-10 20:53:00.790,522,-0.16819572,-1.051269,0.36636084,0.0,0.0,0.0
2026-05-10 20:53:00.800,523,-0.16819572000000002,-1.051269,0.36636084,0.0,0.0,0.0
2026-05-10 20:53:00.810,524,-0.16819572000000002,-1.051269,0.36636084,0.0,0.0,0.0
2026-05-10 20:53:00.820,525,-0.16819572,-1.051269,0.36636084,0.0,0.0,0.0
2026-05-10 20:53:00.830,526,-0.24362894666666665,-1.0856931,0.3785575933333334,0.0,0.0,0.0
2026-05-10 20:53:00.840,527,-0.3944954,-1.1545413,0.4029511,0.0,0.0,0.0
2026-05-10 20:53:00.850,528,-0.3944954,-1.1545413,0.40295109999999995,0.0,0.0,0.0
2026-05-10 20:53:00.860,529,-0.3944954,-1.1545413,0.40295109999999995,0.0,0.0,0.0
2026-05-10 20:53:00.870,530,-0.3944954,-1.1545413,0.4029511,0.0,0.0,0.0
2026-05-10 20:53:00.880,531,-0.7151834999999999,-1.2301682,0.5911315,0.0,0.0,0.0
2026-05-10 20:53:00.890,532,-0.7151835,-1.2301682,0.5911315,0.0,0.0,0.0
2026-05-10 20:53:00.900,533,-0.7151834999999999,-1.2301682,0.5911315,0.0,0.0,0.0
2026-05-10 20:53:00.910,534,-0.7151834999999999,-1.2301682,0.5911315,0.0,0.0,0.0
2026-05-10 20:53:00.920,535,-0.7151834999999999,-1.2301682,0.5911315,0.0,0.0,0.0
2026-05-10 20:53:00.930,536,-0.7151834999999999,-1.2301682,0.5911315,0.0,0.0,0.0
2026-05-10 20:53:00.940,537,-0.7151834999999999,-1.2301682,0.5911315,0.0,0.0,0.0
2026-05-10 20:53:00.950,538,-0.7151835,-1.2301682,0.5911315,0.0,0.0,0.0
2026-05-10 20:53:00.960,539,-0.7151834999999999,-1.2301682,0.5911315,0.0,0.0,0.0
2026-05-10 20:53:00.970,540,-0.7151834999999999,-1.2301682,0.5911315,0.0,0.0,0.0
2026-05-10 20:53:00.980,541,-0.7151835,-1.2301682,0.5911315,0.0,0.0,0.0
2026-05-10 20:53:00.990,542,-0.7441335666666666,-1.2782823333333333,0.6399898333333334,0.0,0.0,0.0
2026-05-10 20:53:01.000,543,-0.7586086,-1.3023394,0.664419,0.0,0.0,0.0
2026-05-10 20:53:01.010,544,-0.7586086,-1.3023394,0.664419,0.0,0.0,0.0
2026-05-10 20:53:01.020,545,-0.7586086,-1.3023394,0.664419,0.0,0.0,0.0
2026-05-10 20:53:01.030,546,-0.7663607999999998,-1.3116208,0.674419,0.0,0.0,0.0
2026-05-10 20:53:01.040,547,-0.7663608,-1.3116208,0.674419,0.0,0.0,0.0
2026-05-10 20:53:01.050,548,-0.7663607999999998,-1.3116208,0.674419,0.0,0.0,0.0
2026-05-10 20:53:01.060,549,-0.7663607999999998,-1.3116208,0.674419,0.0,0.0,0.0
2026-05-10 20:53:01.070,550,-0.7663608,-1.3116208,0.674419,0.0,0.0,0.0
2026-05-10 20:53:01.080,551,-0.7663608,-1.3116208,0.674419,0.0,0.0,0.0
2026-05-10 20:53:01.090,552,-0.7663608,-1.3116208,0.674419,0.0,0.0,0.0
2026-05-10 20:53:01.100,553,-0.7663608,-1.3116208,0.674419,0.0,0.0,0.0
2026-05-10 20:53:01.110,554,-0.7663608,-1.3116208,0.674419,0.0,0.0,0.0
2026-05-10 20:53:01.120,555,-0.7663608,-1.3116208,0.674419,0.0,0.0,0.0
2026-05-10 20:53:01.130,556,-0.7663608,-1.3116208,0.674419,0.0,0.0,0.0
2026-05-10 20:53:01.140,557,-0.7663608,-1.3116208,0.674419,0.0,0.0,0.0
2026-05-10 20:53:01.150,558,-0.7663607999999998,-1.3116208,0.674419,0.0,0.0,0.0
2026-05-10 20:53:01.160,559,-0.7663608,-1.3116208,0.674419,0.0,0.0,0.0
2026-05-10 20:53:01.170,560,-0.8608563,-1.3443425,0.68215597,0.0,0.0,0.0
2026-05-10 20:53:01.180,561,-1.09847095,-1.4277294,0.745053535,0.0,0.0,0.0
2026-05-10 20:53:01.190,562,-1.3360856,-1.5111163,0.8079511,0.0,0.0,0.0
2026-05-10 20:53:01.200,563,-1.3360855999999999,-1.5111163,0.8079511,0.0,0.0,0.0
2026-05-10 20:53:01.210,564,-1.51814225,-1.64776,0.50076454,0.0,0.0,0.0
2026-05-10 20:53:01.220,565,-1.7001989,-1.7844036999999997,0.19357798,0.0,0.0,0.0
2026-05-10 20:53:01.230,566,-1.7001989,-1.7844036999999997,0.19357798,0.0,0.0,0.0
2026-05-10 20:53:01.240,567,-1.7001989,-1.7844037,0.19357798,0.0,0.0,0.0
2026-05-10 20:53:01.250,568,-2.0449491666666666,-1.7907951666666666,0.48600405999999996,0.0,0.0,0.0
2026-05-10 20:53:01.260,569,-2.2173243,-1.7939909,0.6322171,0.0,0.0,0.0
2026-05-10 20:53:01.270,570,-2.2173243,-1.7939909,0.6322171,0.0,0.0,0.0
2026-05-10 20:53:01.280,571,-2.2173243,-1.7939909,0.6322171,0.0,0.0,0.0
2026-05-10 20:53:01.290,572,-1.69530585,-1.7169266,0.7656230725,0.0,0.0,0.0
2026-05-10 20:53:01.300,573,-1.5212997,-1.6912385,0.81009173,0.0,0.0,0.0
2026-05-10 20:53:01.310,574,-1.5212997,-1.6912385,0.81009173,0.0,0.0,0.0
2026-05-10 20:53:01.320,575,-1.653639225,-1.78786685,0.8108600825,0.0,0.0,0.0
2026-05-10 20:53:01.330,576,-1.6977524,-1.8200763,0.8111162,0.0,0.0,0.0
2026-05-10 20:53:01.340,577,-1.6977524,-1.8200763,0.8111162,0.0,0.0,0.0
2026-05-10 20:53:01.350,578,-1.6977524,-1.8200763,0.8111162,0.0,0.0,0.0
2026-05-10 20:53:01.360,579,-1.6977524,-1.8200763,0.8111162,0.0,0.0,0.0
2026-05-10 20:53:01.370,580,-1.6977524,-1.8200763,0.8111162,0.0,0.0,0.0
2026-05-10 20:53:01.380,581,-1.6977524,-1.8200763,0.8111162,0.0,0.0,0.0
2026-05-10 20:53:01.390,582,-1.6977524,-1.8200763,0.8111162,0.0,0.0,0.0
2026-05-10 20:53:01.400,583,-1.6977524,-1.8200763,0.8111162,0.0,0.0,0.0
2026-05-10 20:53:01.410,584,-1.7733894000000001,-1.8576605,0.7001376,0.0,0.0,0.0
2026-05-10 20:53:01.420,585,-1.8112079,-1.8764526,0.6446483,0.0,0.0,0.0
2026-05-10 20:53:01.430,586,-1.8112079,-1.8764525999999997,0.6446483,0.0,0.0,0.0
2026-05-10 20:53:01.440,587,-1.8112079,-1.8764525999999997,0.6446483,0.0,0.0,0.0
2026-05-10 20:53:01.450,588,-1.7563226749999998,-1.816211775,0.45573776,0.0,0.0,0.0
2026-05-10 20:53:01.460,589,-1.7380276,-1.7961315000000002,0.39276757999999995,0.0,0.0,0.0
2026-05-10 20:53:01.470,590,-1.7380276,-1.7961315,0.39276758,0.0,0.0,0.0
2026-05-10 20:53:01.480,591,-1.7380276,-1.7961315000000002,0.39276757999999995,0.0,0.0,0.0
2026-05-10 20:53:01.490,592,-1.7380276,-1.7961315000000002,0.39276757999999995,0.0,0.0,0.0
2026-05-10 20:53:01.500,593,-1.7380276,-1.7961315000000002,0.39276757999999995,0.0,0.0,0.0
2026-05-10 20:53:01.510,594,-1.7380276,-1.7961315000000002,0.39276757999999995,0.0,0.0,0.0
2026-05-10 20:53:01.520,595,-1.7814526,-1.7881805,0.2599745133333333,0.0,0.0,0.0
2026-05-10 20:53:01.530,596,-1.79230885,-1.78619275,0.22677624666666668,0.0,0.0,0.0
2026-05-10 20:53:01.540,597,-1.8031651,-1.784205,0.19357798,0.0,0.0,0.0
2026-05-10 20:53:01.550,598,-1.8031651,-1.784205,0.19357798,0.0,0.0,0.0
2026-05-10 20:53:01.560,599,-1.8031651,-1.784205,0.19357798,0.0,0.0,0.0
2026-05-10 20:53:01.570,600,-1.8031651,-1.784205,0.19357798,0.0,0.0,0.0
2026-05-10 20:53:01.580,601,-1.8031651,-1.784205,0.19357798,0.0,0.0,0.0
2026-05-10 20:53:01.590,602,-1.8031651,-1.784205,0.19357798,0.0,0.0,0.0
2026-05-10 20:53:01.600,603,-1.8031651,-1.784205,0.19357798,0.0,0.0,0.0
2026-05-10 20:53:01.610,604,-1.8031651,-1.784205,0.19357798,0.0,0.0,0.0
2026-05-10 20:53:01.620,605,-1.8031651,-1.784205,0.19357798,0.0,0.0,0.0
2026-05-10 20:53:01.630,606,-1.8031651,-1.784205,0.19357798,0.0,0.0,0.0
2026-05-10 20:53:01.640,607,-1.8031651,-1.784205,0.19357798,0.0,0.0,0.0
2026-05-10 20:53:01.650,608,-1.8031651,-1.784205,0.19357798,0.0,0.0,0.0
2026-05-10 20:53:01.660,609,-1.9657491999999999,-1.7525995,0.29317278,0.0,0.0,0.0
2026-05-10 20:53:01.670,610,-2.1283333,-1.720994,0.39276757999999995,0.0,0.0,0.0
2026-05-10 20:53:01.680,611,-2.1283333,-1.720994,0.39276757999999995,0.0,0.0,0.0
2026-05-10 20:53:01.690,612,-2.1283333,-1.720994,0.39276758,0.0,0.0,0.0
2026-05-10 20:53:01.700,613,-2.1283333,-1.720994,0.39276757999999995,0.0,0.0,0.0
2026-05-10 20:53:01.710,614,-2.1283333,-1.720994,0.39276757999999995,0.0,0.0,0.0
2026-05-10 20:53:01.720,615,-2.1283333,-1.720994,0.39276758,0.0,0.0,0.0
2026-05-10 20:53:01.730,616,-2.153955133333333,-1.7247350666666665,0.44842507666666664,0.0,0.0,0.0
2026-05-10 20:53:01.740,617,-2.2051988,-1.7322172,0.55974007,0.0,0.0,0.0
2026-05-10 20:53:01.750,618,-2.2051988,-1.7322172,0.55974007,0.0,0.0,0.0
2026-05-10 20:53:01.760,619,-2.2051988,-1.7322172,0.55974007,0.0,0.0,0.0
2026-05-10 20:53:01.770,620,-2.2051988,-1.7322172,0.55974007,0.0,0.0,0.0
2026-05-10 20:53:01.780,621,-2.2051988,-1.7322172,0.55974007,0.0,0.0,0.0
2026-05-10 20:53:01.790,622,-2.2051988,-1.7322172,0.55974007,0.0,0.0,0.0
2026-05-10 20:53:01.800,623,-2.2051988,-1.7322172,0.55974007,0.0,0.0,0.0
2026-05-10 20:53:01.810,624,-2.2051988,-1.7322172,0.55974007,0.0,0.0,0.0
2026-05-10 20:53:01.820,625,-2.236494675,-1.76106275,0.5889449525,0.0,0.0,0.0
2026-05-10 20:53:01.830,626,-2.3303823,-1.8475994,0.6765596,0.0,0.0,0.0
2026-05-10 20:53:01.840,627,-2.3909824250000002,-1.8717584,0.6796177125,0.0,0.0,0.0
2026-05-10 20:53:01.850,628,-2.5727828,-1.9442354,0.68879205,0.0,0.0,0.0
2026-05-10 20:53:01.860,629,-2.5727828,-1.9442354,0.68879205,0.0,0.0,0.0
2026-05-10 20:53:01.870,630,-2.5727828,-1.9442354,0.68879205,0.0,0.0,0.0
2026-05-10 20:53:01.880,631,-2.5727828,-1.9442354,0.68879205,0.0,0.0,0.0
2026-05-10 20:53:01.890,632,-2.5727828,-1.9442354,0.68879205,0.0,0.0,0.0
2026-05-10 20:53:01.900,633,-2.6755352,-1.5981652,0.23313455,0.0,0.0,0.0
2026-05-10 20:53:01.910,634,-2.6755352,-1.5981651999999997,0.23313455000000002,0.0,0.0,0.0
2026-05-10 20:53:01.920,635,-2.6755352,-1.5981652,0.23313455,0.0,0.0,0.0
2026-05-10 20:53:01.930,636,-2.6755352,-1.5981651999999997,0.23313455000000002,0.0,0.0,0.0
2026-05-10 20:53:01.940,637,-2.6755352,-1.5981651999999997,0.23313455000000002,0.0,0.0,0.0
2026-05-10 20:53:01.950,638,-2.6755352,-1.5981651999999997,0.23313455000000002,0.0,0.0,0.0
2026-05-10 20:53:01.960,639,-2.6755352,-1.5981651999999997,0.23313455000000002,0.0,0.0,0.0
2026-05-10 20:53:01.970,640,-2.6755352,-1.5981651999999997,0.23313455000000002,0.0,0.0,0.0
2026-05-10 20:53:01.980,641,-2.6755352,-1.5981652,0.23313455,0.0,0.0,0.0
2026-05-10 20:53:01.990,642,-2.6755352,-1.5981651999999997,0.23313455000000002,0.0,0.0,0.0
2026-05-10 20:53:02.000,643,-2.6755352,-1.5981651999999997,0.23313455000000002,0.0,0.0,0.0
2026-05-10 20:53:02.010,644,-2.6755352,-1.5981651999999997,0.23313455000000002,0.0,0.0,0.0
2026-05-10 20:53:02.020,645,-2.6755352,-1.5981651999999997,0.23313455000000002,0.0,0.0,0.0
2026-05-10 20:53:02.030,646,-2.6755352,-1.5981652,0.23313455,0.0,0.0,0.0
2026-05-10 20:53:02.040,647,-2.5919826666666665,-1.5255199333333334,0.10234963666666667,0.0,0.0,0.0
2026-05-10 20:53:02.050,648,-2.4248776,-1.3802294,-0.15922019,0.0,0.0,0.0
2026-05-10 20:53:02.060,649,-2.4248776,-1.3802294,-0.15922019,0.0,0.0,0.0
2026-05-10 20:53:02.070,650,-2.4248776,-1.3802294,-0.15922019,0.0,0.0,0.0
2026-05-10 20:53:02.080,651,-2.396276875,-1.357522925,-0.182844035,0.0,0.0,0.0
2026-05-10 20:53:02.090,652,-2.3867433,-1.3499541,-0.19071865,0.0,0.0,0.0
2026-05-10 20:53:02.100,653,-2.3867433,-1.3499541,-0.19071865,0.0,0.0,0.0
2026-05-10 20:53:02.110,654,-2.3867433,-1.3499541,-0.19071865,0.0,0.0,0.0
2026-05-10 20:53:02.120,655,-2.3867433,-1.3499541,-0.19071865,0.0,0.0,0.0
2026-05-10 20:53:02.130,656,-2.3867433,-1.3499541,-0.19071865,0.0,0.0,0.0
2026-05-10 20:53:02.140,657,-2.3867433,-1.3499541,-0.19071865,0.0,0.0,0.0
2026-05-10 20:53:02.150,658,-2.3867433,-1.3499541,-0.19071865,0.0,0.0,0.0
2026-05-10 20:53:02.160,659,-2.3867433,-1.3499541,-0.19071865,0.0,0.0,0.0
2026-05-10 20:53:02.170,660,-2.3024822333333335,-1.3488633666666665,-0.15701834333333334,0.0,0.0,0.0
2026-05-10 20:53:02.180,661,-2.2603517,-1.348318,-0.14016819,0.0,0.0,0.0
2026-05-10 20:53:02.190,662,-2.2603517,-1.348318,-0.14016819,0.0,0.0,0.0
2026-05-10 20:53:02.200,663,-2.3158052333333337,-1.3230376666666668,-0.06792558466666666,0.0,0.0,0.0
2026-05-10 20:53:02.210,664,-2.343532,-1.3103975,-0.031804282,0.0,0.0,0.0
2026-05-10 20:53:02.220,665,-2.343532,-1.3103975,-0.031804282,0.0,0.0,0.0
2026-05-10 20:53:02.230,666,-2.343532,-1.3103975,-0.031804282,0.0,0.0,0.0
2026-05-10 20:53:02.240,667,-2.343532,-1.3103975,-0.031804282,0.0,0.0,0.0
2026-05-10 20:53:02.250,668,-2.343532,-1.3103975,-0.031804282,0.0,0.0,0.0
2026-05-10 20:53:02.260,669,-2.343532,-1.3103975,-0.031804282,0.0,0.0,0.0
2026-05-10 20:53:02.270,670,-2.343532,-1.3103975,-0.031804282,0.0,0.0,0.0
2026-05-10 20:53:02.280,671,-2.343532,-1.3103975,-0.031804282,0.0,0.0,0.0
2026-05-10 20:53:02.290,672,-2.343532,-1.3103975,-0.031804282,0.0,0.0,0.0
2026-05-10 20:53:02.300,673,-2.343532,-1.3103975,-0.031804282,0.0,0.0,0.0
2026-05-10 20:53:02.310,674,-2.343532,-1.3103975,-0.031804282,0.0,0.0,0.0
2026-05-10 20:53:02.320,675,-2.343532,-1.3103975,-0.031804282,0.0,0.0,0.0
2026-05-10 20:53:02.330,676,-2.343532,-1.3103975,-0.031804282,0.0,0.0,0.0
2026-05-10 20:53:02.340,677,-2.4917967,-1.2618730500000002,0.027576454,0.0,0.0,0.0
2026-05-10 20:53:02.350,678,-2.6400614,-1.2133486,0.08695719,0.0,0.0,0.0
2026-05-10 20:53:02.360,679,-2.6400614,-1.2133486,0.08695719,0.0,0.0,0.0
2026-05-10 20:53:02.370,680,-2.6400614,-1.2133486,0.08695719,0.0,0.0,0.0
2026-05-10 20:53:02.380,681,-2.6400614,-1.2133486,0.08695719,0.0,0.0,0.0
2026-05-10 20:53:02.390,682,-2.6400614,-1.2133486,0.08695719,0.0,0.0,0.0
2026-05-10 20:53:02.400,683,-2.6400614,-1.2133486,0.08695719,0.0,0.0,0.0
2026-05-10 20:53:02.410,684,-2.6400614,-1.2133486,0.08695719,0.0,0.0,0.0
2026-05-10 20:53:02.420,685,-2.7537425,-1.127499925,0.0885626925,0.0,0.0,0.0
2026-05-10 20:53:02.430,686,-2.8593222666666667,-1.0129102733333333,0.06537716666666667,0.0,0.0,0.0
2026-05-10 20:53:02.440,687,-2.8931653,-0.9699235600000001,0.05351682,0.0,0.0,0.0
2026-05-10 20:53:02.450,688,-2.8931653,-0.96992356,0.05351682,0.0,0.0,0.0
2026-05-10 20:53:02.460,689,-2.8931653,-0.9699235600000001,0.05351682,0.0,0.0,0.0
2026-05-10 20:53:02.470,690,-2.599587175,-0.79859329,-0.0469418925,0.0,0.0,0.0
2026-05-10 20:53:02.480,691,-2.5017278,-0.7414831999999999,-0.08042813,0.0,0.0,0.0
2026-05-10 20:53:02.490,692,-2.5017278,-0.7414831999999999,-0.08042813,0.0,0.0,0.0
2026-05-10 20:53:02.500,693,-2.5017278,-0.7414832,-0.08042813,0.0,0.0,0.0
2026-05-10 20:53:02.510,694,-2.5017278,-0.7414831999999999,-0.08042813,0.0,0.0,0.0
2026-05-10 20:53:02.520,695,-2.5017278,-0.7414831999999999,-0.08042813,0.0,0.0,0.0
2026-05-10 20:53:02.530,696,-2.5017278,-0.7414832,-0.08042813,0.0,0.0,0.0
2026-05-10 20:53:02.540,697,-2.5017278,-0.7414831999999999,-0.08042813,0.0,0.0,0.0
2026-05-10 20:53:02.550,698,-2.373218675,-0.711827225,-0.10275611,0.0,0.0,0.0
2026-05-10 20:53:02.560,699,-2.3303823,-0.7019419,-0.11019877,0.0,0.0,0.0
2026-05-10 20:53:02.570,700,-2.3303823,-0.7019419,-0.11019877,0.0,0.0,0.0
2026-05-10 20:53:02.580,701,-2.2551528,-0.6714373,-0.1138684975,0.0,0.0,0.0
2026-05-10 20:53:02.590,702,-2.2024820666666667,-0.6399286333333334,-0.11831804333333333,0.0,0.0,0.0
2026-05-10 20:53:02.600,703,-2.1472936,-0.5972477,-0.12477065,0.0,0.0,0.0
2026-05-10 20:53:02.610,704,-2.1472936,-0.5972477,-0.12477065,0.0,0.0,0.0
2026-05-10 20:53:02.620,705,-2.1472936,-0.5972477,-0.12477065,0.0,0.0,0.0
2026-05-10 20:53:02.630,706,-2.1472936,-0.5972477,-0.12477065,0.0,0.0,0.0
2026-05-10 20:53:02.640,707,-2.1472936,-0.5972477,-0.12477065,0.0,0.0,0.0
2026-05-10 20:53:02.650,708,-2.1472936,-0.5972477,-0.12477065,0.0,0.0,0.0
2026-05-10 20:53:02.660,709,-2.1472936,-0.5972477,-0.12477065,0.0,0.0,0.0
2026-05-10 20:53:02.670,710,-2.1472936,-0.5972477,-0.12477065,0.0,0.0,0.0
2026-05-10 20:53:02.680,711,-2.0726032,-0.574002305,-0.1409059625,0.0,0.0,0.0
2026-05-10 20:53:02.690,712,-2.0477064,-0.56625384,-0.1462844,0.0,0.0,0.0
2026-05-10 20:53:02.700,713,-2.0477064,-0.56625384,-0.1462844,0.0,0.0,0.0
2026-05-10 20:53:02.710,714,-2.0477064,-0.56625384,-0.1462844,0.0,0.0,0.0
2026-05-10 20:53:02.720,715,-2.0477064,-0.56625384,-0.1462844,0.0,0.0,0.0
2026-05-10 20:53:02.730,716,-2.0477064,-0.56625384,-0.1462844,0.0,0.0,0.0
2026-05-10 20:53:02.740,717,-2.0035627,-0.4538226,-0.23099388,0.0,0.0,0.0
2026-05-10 20:53:02.750,718,-2.0035627,-0.4538226,-0.23099388,0.0,0.0,0.0
2026-05-10 20:53:02.760,719,-2.0035627,-0.4538226,-0.23099388,0.0,0.0,0.0
2026-05-10 20:53:02.770,720,-2.0232365333333333,-0.4407747,-0.24237512000000003,0.0,0.0,0.0
2026-05-10 20:53:02.780,721,-2.0625842,-0.4146789,-0.2651376,0.0,0.0,0.0
2026-05-10 20:53:02.790,722,-2.0625842,-0.4146789,-0.2651376,0.0,0.0,0.0
2026-05-10 20:53:02.800,723,-2.0625842,-0.4146789,-0.2651376,0.0,0.0,0.0
2026-05-10 20:53:02.810,724,-2.0625842,-0.4146789,-0.2651376,0.0,0.0,0.0
2026-05-10 20:53:02.820,725,-2.159075,-0.4053555,-0.2656766025,0.0,0.0,0.0
2026-05-10 20:53:02.830,726,-2.2017279,-0.4066208,-0.20458716,0.0,0.0,0.0
2026-05-10 20:53:02.840,727,-2.206704975,-0.39967124,-0.11842889999999999,0.0,0.0,0.0
2026-05-10 20:53:02.850,728,-2.208364,-0.39735472,-0.08970948,0.0,0.0,0.0
2026-05-10 20:53:02.860,729,-2.208364,-0.39735472,-0.08970948,0.0,0.0,0.0
2026-05-10 20:53:02.870,730,-2.208364,-0.39735472,-0.08970948,0.0,0.0,0.0
2026-05-10 20:53:02.880,731,-2.208364,-0.39735472,-0.08970948,0.0,0.0,0.0
2026-05-10 20:53:02.890,732,-2.208364,-0.39735472,-0.08970948,0.0,0.0,0.0
2026-05-10 20:53:02.900,733,-2.208364,-0.39735472,-0.08970948,0.0,0.0,0.0
2026-05-10 20:53:02.910,734,-2.1605506,-0.40642202,-0.007951071,0.0,0.0,0.0
2026-05-10 20:53:02.920,735,-2.1605506,-0.40642202,-0.007951071,0.0,0.0,0.0
2026-05-10 20:53:02.930,736,-2.1605506,-0.40642202,-0.007951071,0.0,0.0,0.0
2026-05-10 20:53:02.940,737,-2.1605506,-0.40642202,-0.007951071,0.0,0.0,0.0
2026-05-10 20:53:02.950,738,-2.1605506,-0.40642202,-0.007951071,0.0,0.0,0.0
2026-05-10 20:53:02.960,739,-2.1605506,-0.40642202,-0.007951071,0.0,0.0,0.0
2026-05-10 20:53:02.970,740,-2.1605506,-0.40642202,-0.007951071,0.0,0.0,0.0
2026-05-10 20:53:02.980,741,-2.1605506,-0.40642202,-0.007951071,0.0,0.0,0.0
2026-05-10 20:53:02.990,742,-2.1605506,-0.40642202,-0.007951071,0.0,0.0,0.0
2026-05-10 20:53:03.000,743,-2.1605506,-0.40642202,-0.007951071,0.0,0.0,0.0
2026-05-10 20:53:03.010,744,-2.1605506,-0.40642202,-0.007951071,0.0,0.0,0.0
2026-05-10 20:53:03.020,745,-2.1605506,-0.40642202,-0.007951071,0.0,0.0,0.0
2026-05-10 20:53:03.030,746,-2.1605506,-0.40642202,-0.007951071,0.0,0.0,0.0
2026-05-10 20:53:03.040,747,-1.9855199,-0.56850153,0.1462844,0.0,0.0,0.0
2026-05-10 20:53:03.050,748,-1.9855199,-0.56850153,0.1462844,0.0,0.0,0.0
2026-05-10 20:53:03.060,749,-1.9855199,-0.56850153,0.1462844,0.0,0.0,0.0
2026-05-10 20:53:03.070,750,-1.9855199,-0.56850153,0.1462844,0.0,0.0,0.0
2026-05-10 20:53:03.080,751,-1.9609225666666668,-0.5967685966666667,0.18773189999999998,0.0,0.0,0.0
2026-05-10 20:53:03.090,752,-1.9486239,-0.61090213,0.20845565,0.0,0.0,0.0
2026-05-10 20:53:03.100,753,-1.9486239,-0.61090213,0.20845565,0.0,0.0,0.0
2026-05-10 20:53:03.110,754,-1.9486239,-0.61090213,0.20845565,0.0,0.0,0.0
2026-05-10 20:53:03.120,755,-1.9486239,-0.61090213,0.20845565,0.0,0.0,0.0
2026-05-10 20:53:03.130,756,-1.9486239,-0.61090213,0.20845565,0.0,0.0,0.0
2026-05-10 20:53:03.140,757,-1.9535168,-0.68246174,0.2221254,0.0,0.0,0.0
2026-05-10 20:53:03.150,758,-1.9535168,-0.68246174,0.2221254,0.0,0.0,0.0
2026-05-10 20:53:03.160,759,-1.9535168,-0.68246174,0.2221254,0.0,0.0,0.0
2026-05-10 20:53:03.170,760,-1.9535168,-0.68246174,0.2221254,0.0,0.0,0.0
2026-05-10 20:53:03.180,761,-1.9535168,-0.68246174,0.2221254,0.0,0.0,0.0
2026-05-10 20:53:03.190,762,-1.9881804999999997,-0.7195719,0.21478595,0.0,0.0,0.0
2026-05-10 20:53:03.200,763,-1.9881804999999997,-0.7195719,0.21478595,0.0,0.0,0.0
2026-05-10 20:53:03.210,764,-1.9881804999999997,-0.7195719,0.21478595,0.0,0.0,0.0
2026-05-10 20:53:03.220,765,-1.9881805,-0.7195719,0.21478595,0.0,0.0,0.0
2026-05-10 20:53:03.230,766,-2.0648317,-0.75279814,0.21284403,0.0,0.0,0.0
2026-05-10 20:53:03.240,767,-2.0648317,-0.75279814,0.21284403,0.0,0.0,0.0
2026-05-10 20:53:03.250,768,-2.0648317,-0.75279814,0.21284403,0.0,0.0,0.0
2026-05-10 20:53:03.260,769,-2.0648317,-0.75279814,0.21284403,0.0,0.0,0.0
2026-05-10 20:53:03.270,770,-2.121685725,-0.78781344,0.2550726275,0.0,0.0,0.0
2026-05-10 20:53:03.280,771,-2.3101581,-0.8978236599999999,0.39728337999999996,0.0,0.0,0.0
2026-05-10 20:53:03.290,772,-2.3459787,-0.9077523,0.4283333,0.0,0.0,0.0
2026-05-10 20:53:03.300,773,-2.3459787,-0.9077523,0.4283333,0.0,0.0,0.0
2026-05-10 20:53:03.310,774,-2.3459787,-0.9077523,0.4283333,0.0,0.0,0.0
2026-05-10 20:53:03.320,775,-2.3459787,-0.9077523,0.4283333,0.0,0.0,0.0
2026-05-10 20:53:03.330,776,-2.3459787,-0.9077523,0.4283333,0.0,0.0,0.0
2026-05-10 20:53:03.340,777,-2.2556574,-0.9429205,0.4642202,0.0,0.0,0.0
2026-05-10 20:53:03.350,778,-2.2556574,-0.9429205,0.4642202,0.0,0.0,0.0
2026-05-10 20:53:03.360,779,-2.2556574,-0.9429205,0.4642202,0.0,0.0,0.0
2026-05-10 20:53:03.370,780,-2.1798891,-0.97074163,0.514071125,0.0,0.0,0.0
2026-05-10 20:53:03.380,781,-2.053103933333333,-1.02344038,0.5646636333333334,0.0,0.0,0.0
2026-05-10 20:53:03.390,782,-1.9896686333333333,-1.0549082666666667,0.5961264333333334,0.0,0.0,0.0
2026-05-10 20:53:03.400,783,-1.9643271,-1.074419,0.6250765,0.0,0.0,0.0
2026-05-10 20:53:03.410,784,-1.9706421999999997,-1.0693119,0.6670795000000002,0.0,0.0,0.0
2026-05-10 20:53:03.420,785,-1.9706422,-1.0693119,0.6670795,0.0,0.0,0.0
2026-05-10 20:53:03.430,786,-1.9706421999999997,-1.0693119,0.6670795000000002,0.0,0.0,0.0
2026-05-10 20:53:03.440,787,-1.9706421999999997,-1.0693119,0.6670795000000002,0.0,0.0,0.0
2026-05-10 20:53:03.450,788,-1.9706421999999997,-1.0693119,0.6670795000000002,0.0,0.0,0.0
2026-05-10 20:53:03.460,789,-1.9706422,-1.0693119,0.6670795,0.0,0.0,0.0
2026-05-10 20:53:03.470,790,-2.1414833,-1.0427064,0.8184557,0.0,0.0,0.0
2026-05-10 20:53:03.480,791,-2.1414833,-1.0427064,0.8184557,0.0,0.0,0.0
2026-05-10 20:53:03.490,792,-2.1414833,-1.0427064,0.8184557,0.0,0.0,0.0
2026-05-10 20:53:03.500,793,-2.1414833,-1.0427064,0.8184557,0.0,0.0,0.0
2026-05-10 20:53:03.510,794,-2.1414833,-1.0427064,0.8184557,0.0,0.0,0.0
2026-05-10 20:53:03.520,795,-2.1618273500000003,-1.043245425,0.87640295,0.0,0.0,0.0
2026-05-10 20:53:03.530,796,-2.1686087,-1.0434251,0.8957187000000001,0.0,0.0,0.0
2026-05-10 20:53:03.540,797,-2.1686087,-1.0434251,0.8957187000000001,0.0,0.0,0.0
2026-05-10 20:53:03.550,798,-2.1686087,-1.0434251,0.8957187,0.0,0.0,0.0
2026-05-10 20:53:03.560,799,-2.1043882,-1.0551529,0.9623852999999999,0.0,0.0,0.0
2026-05-10 20:53:03.570,800,-2.1043882,-1.0551529,0.9623852999999999,0.0,0.0,0.0
2026-05-10 20:53:03.580,801,-1.9334365,-1.184969425,1.117282125,0.0,0.0,0.0
2026-05-10 20:53:03.590,802,-1.8764525999999997,-1.2282416,1.1689144,0.0,0.0,0.0
2026-05-10 20:53:03.600,803,-1.8764525999999997,-1.2282416,1.1689144,0.0,0.0,0.0
2026-05-10 20:53:03.610,804,-1.8764526,-1.2282416,1.1689144,0.0,0.0,0.0
2026-05-10 20:53:03.620,805,-1.8764525999999997,-1.2282416,1.1689144,0.0,0.0,0.0
2026-05-10 20:53:03.630,806,-1.8764526,-1.2282416,1.1689144,0.0,0.0,0.0
2026-05-10 20:53:03.640,807,-1.8764525999999997,-1.2282416,1.1689144,0.0,0.0,0.0
2026-05-10 20:53:03.650,808,-1.8764525999999997,-1.2282416,1.1689144,0.0,0.0,0.0
2026-05-10 20:53:03.660,809,-1.8764525999999997,-1.2282416,1.1689144,0.0,0.0,0.0
2026-05-10 20:53:03.670,810,-1.8764525999999997,-1.2282416,1.1689144,0.0,0.0,0.0
2026-05-10 20:53:03.680,811,-1.8764525999999997,-1.2282416,1.1689144,0.0,0.0,0.0
2026-05-10 20:53:03.690,812,-1.8764526,-1.2282416,1.1689144,0.0,0.0,0.0
2026-05-10 20:53:03.700,813,-1.7272170666666666,-1.2568450666666666,1.171157,0.0,0.0,0.0
2026-05-10 20:53:03.710,814,-1.6525993,-1.2711468,1.1722783,0.0,0.0,0.0
2026-05-10 20:53:03.720,815,-1.6525993,-1.2711468,1.1722783,0.0,0.0,0.0
2026-05-10 20:53:03.730,816,-1.6285422333333335,-1.2475688,1.1684047,0.0,0.0,0.0
2026-05-10 20:53:03.740,817,-1.6049693999999999,-1.2063188,1.047224775,0.0,0.0,0.0
2026-05-10 20:53:03.750,818,-1.6011163,-1.1960245,1.0436238,0.0,0.0,0.0
2026-05-10 20:53:03.760,819,-1.6011163,-1.1960245,1.0436238,0.0,0.0,0.0
2026-05-10 20:53:03.770,820,-1.6011163,-1.1960245,1.0436238,0.0,0.0,0.0
2026-05-10 20:53:03.780,821,-1.6011163,-1.1960245,1.0436238,0.0,0.0,0.0
2026-05-10 20:53:03.790,822,-1.5647247999999998,-1.1153976,0.5706422,0.0,0.0,0.0
2026-05-10 20:53:03.800,823,-1.5647248,-1.1153976,0.5706422,0.0,0.0,0.0
2026-05-10 20:53:03.810,824,-1.5647247999999998,-1.1153976,0.5706422,0.0,0.0,0.0
2026-05-10 20:53:03.820,825,-1.5647248,-1.1153976,0.5706422,0.0,0.0,0.0
2026-05-10 20:53:03.830,826,-1.5647247999999998,-1.1153976,0.5706422,0.0,0.0,0.0
2026-05-10 20:53:03.840,827,-1.5647247999999998,-1.1153976,0.5706422,0.0,0.0,0.0
2026-05-10 20:53:03.850,828,-1.5647247999999998,-1.1153976,0.5706422,0.0,0.0,0.0
2026-05-10 20:53:03.860,829,-1.5730224,-1.1139704000000001,0.531631,0.0,0.0,0.0
2026-05-10 20:53:03.870,830,-1.5320030000000002,-1.180841,0.35616207000000005,0.0,0.0,0.0
2026-05-10 20:53:03.880,831,-1.532003,-1.180841,0.35616207,0.0,0.0,0.0
2026-05-10 20:53:03.890,832,-1.5320030000000002,-1.180841,0.35616207000000005,0.0,0.0,0.0
2026-05-10 20:53:03.900,833,-1.5003720666666667,-1.1927981666666667,0.32711008,0.0,0.0,0.0
2026-05-10 20:53:03.910,834,-1.4371102,-1.2167125,0.2690061,0.0,0.0,0.0
2026-05-10 20:53:03.920,835,-1.4371102,-1.2167125,0.2690061,0.0,0.0,0.0
2026-05-10 20:53:03.930,836,-1.2778288,-1.23088685,0.17257644500000002,0.0,0.0,0.0
2026-05-10 20:53:03.940,837,-1.1185474,-1.2450612,0.07614679,0.0,0.0,0.0
2026-05-10 20:53:03.950,838,-1.0377828666666666,-1.2187614666666666,0.02691131666666667,0.0,0.0,0.0
2026-05-10 20:53:03.960,839,-0.8762538000000001,-1.166162,-0.07155963,0.0,0.0,0.0
2026-05-10 20:53:03.970,840,-0.8762538000000001,-1.166162,-0.07155963,0.0,0.0,0.0
2026-05-10 20:53:03.980,841,-0.68440366,-1.060046,-0.15340978,0.0,0.0,0.0
2026-05-10 20:53:03.990,842,-0.68440366,-1.060046,-0.15340978,0.0,0.0,0.0
2026-05-10 20:53:04.000,843,-0.68440366,-1.060046,-0.15340978,0.0,0.0,0.0
2026-05-10 20:53:04.010,844,-0.68440366,-1.060046,-0.15340978,0.0,0.0,0.0
2026-05-10 20:53:04.020,845,-0.68440366,-1.060046,-0.15340978,0.0,0.0,0.0
2026-05-10 20:53:04.030,846,-0.68440366,-1.060046,-0.15340978,0.0,0.0,0.0
2026-05-10 20:53:04.040,847,-0.68440366,-1.060046,-0.15340978,0.0,0.0,0.0
2026-05-10 20:53:04.050,848,-0.17695719,-0.91579515,-0.14311926,0.0,0.0,0.0
2026-05-10 20:53:04.060,849,-0.17695719,-0.91579515,-0.14311926,0.0,0.0,0.0
2026-05-10 20:53:04.070,850,-0.17695719,-0.91579515,-0.14311926,0.0,0.0,0.0
2026-05-10 20:53:04.080,851,-0.17695719,-0.91579515,-0.14311926,0.0,0.0,0.0
2026-05-10 20:53:04.090,852,-0.17695719,-0.91579515,-0.14311926,0.0,0.0,0.0
2026-05-10 20:53:04.100,853,-0.17695719,-0.91579515,-0.14311926,0.0,0.0,0.0
2026-05-10 20:53:04.110,854,-0.17695719,-0.91579515,-0.14311926,0.0,0.0,0.0
2026-05-10 20:53:04.120,855,-0.17695719,-0.91579515,-0.14311926,0.0,0.0,0.0
2026-05-10 20:53:04.130,856,-0.03404179466666666,-0.8430835833333333,-0.06455657333333333,0.0,0.0,0.0
2026-05-10 20:53:04.140,857,0.037415903,-0.8067278,-0.02527523,0.0,0.0,0.0
2026-05-10 20:53:04.150,858,0.037415903,-0.8067278,-0.02527523,0.0,0.0,0.0
2026-05-10 20:53:04.160,859,0.037415903,-0.8067278,-0.02527523,0.0,0.0,0.0
2026-05-10 20:53:04.170,860,0.037415903,-0.8067278,-0.02527523,0.0,0.0,0.0
2026-05-10 20:53:04.180,861,0.42405199999999993,-0.595107,-0.022522936000000004,0.0,0.0,0.0
2026-05-10 20:53:04.190,862,0.22963685,-0.710623095,-0.016720183,0.0,0.0,0.0
2026-05-10 20:53:04.200,863,0.33764526666666667,-0.6464474866666667,-0.019943934666666666,0.0,0.0,0.0
2026-05-10 20:53:04.210,864,0.42405199999999993,-0.595107,-0.022522936000000004,0.0,0.0,0.0
2026-05-10 20:53:04.220,865,0.60489297,-0.40989295,-0.04475535,0.0,0.0,0.0
2026-05-10 20:53:04.230,866,0.60489297,-0.40989295,-0.04475535,0.0,0.0,0.0
2026-05-10 20:53:04.240,867,0.60489297,-0.40989295,-0.04475535,0.0,0.0,0.0
2026-05-10 20:53:04.250,868,0.60489297,-0.40989295,-0.04475535,0.0,0.0,0.0
2026-05-10 20:53:04.260,869,0.60489297,-0.40989295,-0.04475535,0.0,0.0,0.0
2026-05-10 20:53:04.270,870,0.60489297,-0.40989295,-0.04475535,0.0,0.0,0.0
2026-05-10 20:53:04.280,871,0.60489297,-0.40989295,-0.04475535,0.0,0.0,0.0
2026-05-10 20:53:04.290,872,0.7331294566666666,-0.3714220033333333,0.007232416666666667,0.0,0.0,0.0
2026-05-10 20:53:04.300,873,0.7972477,-0.35218653,0.0332263,0.0,0.0,0.0
2026-05-10 20:53:04.310,874,0.7972477000000001,-0.35218653,0.0332263,0.0,0.0,0.0
2026-05-10 20:53:04.320,875,0.7972477000000001,-0.35218653,0.0332263,0.0,0.0,0.0
2026-05-10 20:53:04.330,876,0.7972477000000001,-0.35218653,0.0332263,0.0,0.0,0.0
2026-05-10 20:53:04.340,877,0.7972477,-0.35218653,0.0332263,0.0,0.0,0.0
2026-05-10 20:53:04.350,878,0.8677166066666667,-0.29395004333333336,0.05388889333333333,0.0,0.0,0.0
2026-05-10 20:53:04.360,879,0.90295106,-0.2648318,0.06422019,0.0,0.0,0.0
2026-05-10 20:53:04.370,880,0.90295106,-0.2648318,0.06422019,0.0,0.0,0.0
2026-05-10 20:53:04.380,881,0.93319573,-0.2522273133333333,0.07855759999999999,0.0,0.0,0.0
2026-05-10 20:53:04.390,882,0.99368507,-0.22701834,0.10723242,0.0,0.0,0.0
2026-05-10 20:53:04.400,883,0.9936850700000001,-0.22701834,0.10723242,0.0,0.0,0.0
2026-05-10 20:53:04.410,884,0.9936850700000001,-0.22701834,0.10723242,0.0,0.0,0.0
2026-05-10 20:53:04.420,885,0.9936850700000001,-0.22701834,0.10723242,0.0,0.0,0.0
2026-05-10 20:53:04.430,886,0.9936850700000001,-0.22701834,0.10723242,0.0,0.0,0.0
2026-05-10 20:53:04.440,887,0.99368507,-0.22701834,0.10723242,0.0,0.0,0.0
2026-05-10 20:53:04.450,888,1.0061519133333332,-0.20350152000000002,0.11950051333333334,0.0,0.0,0.0
2026-05-10 20:53:04.460,889,1.0310856,-0.15646788,0.1440367,0.0,0.0,0.0
2026-05-10 20:53:04.470,890,1.0310856,-0.15646788,0.1440367,0.0,0.0,0.0
2026-05-10 20:53:04.480,891,1.0310856,-0.15646788,0.1440367,0.0,0.0,0.0
2026-05-10 20:53:04.490,892,1.0310856,-0.15646788,0.1440367,0.0,0.0,0.0
2026-05-10 20:53:04.500,893,1.0310856,-0.15646788,0.1440367,0.0,0.0,0.0
2026-05-10 20:53:04.510,894,1.0310856,-0.15646788,0.1440367,0.0,0.0,0.0
2026-05-10 20:53:04.520,895,1.0310856,-0.15646788,0.1440367,0.0,0.0,0.0
2026-05-10 20:53:04.530,896,1.1738074,-0.11059634,0.16769113,0.0,0.0,0.0
2026-05-10 20:53:04.540,897,1.1738074,-0.11059634,0.16769113,0.0,0.0,0.0
2026-05-10 20:53:04.550,898,1.1738074,-0.11059634,0.16769113,0.0,0.0,0.0
2026-05-10 20:53:04.560,899,1.1738074,-0.11059634,0.16769113,0.0,0.0,0.0
2026-05-10 20:53:04.570,900,1.1738074,-0.11059634,0.16769113,0.0,0.0,0.0
2026-05-10 20:53:04.580,901,1.1738074,-0.11059634,0.16769113,0.0,0.0,0.0
2026-05-10 20:53:04.590,902,1.2196789,-0.06227828999999999,0.20285933,0.0,0.0,0.0
2026-05-10 20:53:04.600,903,1.2376147,-0.022324160000000003,0.20958716,0.0,0.0,0.0
2026-05-10 20:53:04.610,904,1.2555505,0.01762997,0.21631499,0.0,0.0,0.0
2026-05-10 20:53:04.620,905,1.2555505,0.01762997,0.21631499,0.0,0.0,0.0
2026-05-10 20:53:04.630,906,1.2555505,0.01762997,0.21631499,0.0,0.0,0.0
2026-05-10 20:53:04.640,907,1.2555505,0.01762997,0.21631499,0.0,0.0,0.0
2026-05-10 20:53:04.650,908,1.2555505,0.01762997,0.21631499,0.0,0.0,0.0
2026-05-10 20:53:04.660,909,1.2555505,0.01762997,0.21631499,0.0,0.0,0.0
2026-05-10 20:53:04.670,910,1.271429725,0.026295871499999998,0.2254625475,0.0,0.0,0.0
2026-05-10 20:53:04.680,911,1.3190674,0.052293576,0.25290522,0.0,0.0,0.0
2026-05-10 20:53:04.690,912,1.3190674,0.052293576,0.25290522,0.0,0.0,0.0
2026-05-10 20:53:04.700,913,1.4316055,0.07940367,0.40519878,0.0,0.0,0.0
2026-05-10 20:53:04.710,914,1.4316055,0.07940367,0.4051987799999999,0.0,0.0,0.0
2026-05-10 20:53:04.720,915,1.482672025,0.133761465,0.422400615,0.0,0.0,0.0
2026-05-10 20:53:04.730,916,1.4996941999999998,0.15188073,0.42813456,0.0,0.0,0.0
2026-05-10 20:53:04.740,917,1.4622782,0.11753823000000001,0.43230885,0.0,0.0,0.0
2026-05-10 20:53:04.750,918,1.4622782,0.11753823,0.43230885,0.0,0.0,0.0
2026-05-10 20:53:04.760,919,1.4622782,0.11753823000000001,0.43230885,0.0,0.0,0.0
2026-05-10 20:53:04.770,920,1.4622782,0.11753823000000001,0.43230885,0.0,0.0,0.0
2026-05-10 20:53:04.780,921,1.4622782,0.11753823,0.43230885,0.0,0.0,0.0
2026-05-10 20:53:04.790,922,1.4622782,0.11753823000000001,0.43230885,0.0,0.0,0.0
2026-05-10 20:53:04.800,923,1.4622782,0.11753823000000001,0.43230885,0.0,0.0,0.0
2026-05-10 20:53:04.810,924,1.4622782,0.11753823000000001,0.43230885,0.0,0.0,0.0
2026-05-10 20:53:04.820,925,1.4622782,0.11753823000000001,0.43230885,0.0,0.0,0.0
2026-05-10 20:53:04.830,926,1.4622782,0.11753823000000001,0.43230885,0.0,0.0,0.0
2026-05-10 20:53:04.840,927,1.4622782,0.11753823,0.43230885,0.0,0.0,0.0
2026-05-10 20:53:04.850,928,1.4622782,0.11753823000000001,0.43230885,0.0,0.0,0.0
2026-05-10 20:53:04.860,929,1.4622782,0.11753823000000001,0.43230885,0.0,0.0,0.0
2026-05-10 20:53:04.870,930,1.4622782,0.11753823000000001,0.43230885,0.0,0.0,0.0
2026-05-10 20:53:04.880,931,1.4622782,0.11753823000000001,0.43230885,0.0,0.0,0.0
2026-05-10 20:53:04.890,932,1.4622782,0.11753823000000001,0.43230885,0.0,0.0,0.0
2026-05-10 20:53:04.900,933,1.4622782,0.11753823,0.43230885,0.0,0.0,0.0
2026-05-10 20:53:04.910,934,1.5372018,0.029663606999999998,0.39204893,0.0,0.0,0.0
2026-05-10 20:53:04.920,935,1.5372018,0.029663606999999998,0.39204893,0.0,0.0,0.0
2026-05-10 20:53:04.930,936,1.5372018,0.029663606999999998,0.39204893,0.0,0.0,0.0
2026-05-10 20:53:04.940,937,1.5372018,0.029663606999999998,0.39204893,0.0,0.0,0.0
2026-05-10 20:53:04.950,938,1.5385983666666665,0.0206931692,0.4208307866666667,0.0,0.0,0.0
2026-05-10 20:53:04.960,939,1.5413915000000002,0.0027522936,0.4783945,0.0,0.0,0.0
2026-05-10 20:53:04.970,940,1.5413915,0.0027522936,0.4783945,0.0,0.0,0.0
2026-05-10 20:53:04.980,941,1.5373140333333335,0.017803262400000002,0.47890418333333334,0.0,0.0,0.0
2026-05-10 20:53:04.990,942,1.5291591,0.0479052,0.4799235499999999,0.0,0.0,0.0
2026-05-10 20:53:05.000,943,1.5291591,0.0479052,0.4799235499999999,0.0,0.0,0.0
2026-05-10 20:53:05.010,944,1.5291591,0.0479052,0.4799235499999999,0.0,0.0,0.0
2026-05-10 20:53:05.020,945,1.5291591,0.0479052,0.4799235499999999,0.0,0.0,0.0
2026-05-10 20:53:05.030,946,1.504694233333333,0.04732925666666667,0.4804638266666667,0.0,0.0,0.0
2026-05-10 20:53:05.040,947,1.4557645,0.04617737,0.48154438000000005,0.0,0.0,0.0
2026-05-10 20:53:05.050,948,1.4557645,0.04617737,0.48154438000000005,0.0,0.0,0.0
2026-05-10 20:53:05.060,949,1.4557645,0.04617737,0.48154438000000005,0.0,0.0,0.0
2026-05-10 20:53:05.070,950,1.4557645,0.04617737,0.48154438000000005,0.0,0.0,0.0
2026-05-10 20:53:05.080,951,1.4557645,0.04617737,0.48154438000000005,0.0,0.0,0.0
2026-05-10 20:53:05.090,952,1.3292914999999998,0.026060141999999998,0.44308360666666663,0.0,0.0,0.0
2026-05-10 20:53:05.100,953,1.178899,-0.025489297,0.40152904,0.0,0.0,0.0
2026-05-10 20:53:05.110,954,1.178899,-0.025489297000000005,0.40152904,0.0,0.0,0.0
2026-05-10 20:53:05.120,955,1.178899,-0.025489297000000005,0.40152904,0.0,0.0,0.0
2026-05-10 20:53:05.130,956,1.178899,-0.025489297000000005,0.40152904,0.0,0.0,0.0
2026-05-10 20:53:05.140,957,1.178899,-0.025489297000000005,0.40152904,0.0,0.0,0.0
2026-05-10 20:53:05.150,958,1.130584825,-0.037335628,0.397859335,0.0,0.0,0.0
2026-05-10 20:53:05.160,959,1.1144801,-0.041284405,0.3966361,0.0,0.0,0.0
2026-05-10 20:53:05.170,960,1.1144801,-0.041284405,0.3966361,0.0,0.0,0.0
2026-05-10 20:53:05.180,961,1.1144801,-0.041284405,0.3966361,0.0,0.0,0.0
2026-05-10 20:53:05.190,962,1.1144801,-0.041284405,0.3966361,0.0,0.0,0.0
2026-05-10 20:53:05.200,963,0.88654946,-0.16266054833333332,0.42592253999999996,0.0,0.0,0.0
2026-05-10 20:53:05.210,964,0.7725841399999999,-0.22334862,0.44056576,0.0,0.0,0.0
2026-05-10 20:53:05.220,965,0.77258414,-0.22334862,0.44056576,0.0,0.0,0.0
2026-05-10 20:53:05.230,966,0.7725841399999999,-0.22334862,0.44056576,0.0,0.0,0.0
2026-05-10 20:53:05.240,967,0.7725841399999999,-0.22334862,0.44056576,0.0,0.0,0.0
2026-05-10 20:53:05.250,968,0.7725841399999999,-0.22334862,0.44056576,0.0,0.0,0.0
2026-05-10 20:53:05.260,969,0.7430530399999999,-0.26282874,0.4616361066666667,0.0,0.0,0.0
2026-05-10 20:53:05.270,970,0.68399084,-0.34178898,0.5037768,0.0,0.0,0.0
2026-05-10 20:53:05.280,971,0.68399084,-0.34178898,0.5037768,0.0,0.0,0.0
2026-05-10 20:53:05.290,972,0.68399084,-0.34178898,0.5037768,0.0,0.0,0.0
2026-05-10 20:53:05.300,973,0.68399084,-0.34178898,0.5037768,0.0,0.0,0.0
2026-05-10 20:53:05.310,974,0.68399084,-0.34178898,0.5037768,0.0,0.0,0.0
2026-05-10 20:53:05.320,975,0.68399084,-0.34178898,0.5037768,0.0,0.0,0.0
2026-05-10 20:53:05.330,976,0.68399084,-0.34178898,0.5037768,0.0,0.0,0.0
2026-05-10 20:53:05.340,977,0.68399084,-0.34178898,0.5037768,0.0,0.0,0.0
2026-05-10 20:53:05.350,978,0.68399084,-0.34178898,0.5037768,0.0,0.0,0.0
2026-05-10 20:53:05.360,979,0.68399084,-0.34178898,0.5037768,0.0,0.0,0.0
2026-05-10 20:53:05.370,980,0.5749236,-0.43322632,0.5394496,0.0,0.0,0.0
2026-05-10 20:53:05.380,981,0.5749236,-0.43322632,0.5394496,0.0,0.0,0.0
2026-05-10 20:53:05.390,982,0.5749236,-0.43322632,0.5394496,0.0,0.0,0.0
2026-05-10 20:53:05.400,983,0.5749236,-0.43322632,0.5394496,0.0,0.0,0.0
2026-05-10 20:53:05.410,984,0.5749236,-0.43322632,0.5394496,0.0,0.0,0.0
2026-05-10 20:53:05.420,985,0.5749236,-0.43322632,0.5394496,0.0,0.0,0.0
2026-05-10 20:53:05.430,986,-0.6987104666666667,-0.6542303666666667,0.20095312333333334,0.0,0.0,0.0
2026-05-10 20:53:05.440,987,-1.201529,-0.7085627,0.047201835,0.0,0.0,0.0
2026-05-10 20:53:05.450,988,-1.201529,-0.7085627,0.047201835,0.0,0.0,0.0
2026-05-10 20:53:05.460,989,-1.201529,-0.7085627,0.047201835,0.0,0.0,0.0
2026-05-10 20:53:05.470,990,-0.33112128,-0.6238226333333333,0.304418945,0.0,0.0,0.0
2026-05-10 20:53:05.480,991,0.10408258,-0.5814526,0.4330275,0.0,0.0,0.0
2026-05-10 20:53:05.490,992,0.02137615333333333,-0.5933078466666667,0.4083588,0.0,0.0,0.0
2026-05-10 20:53:05.500,993,-0.3260958133333333,-0.6408104066666667,0.3030886666666666,0.0,0.0,0.0
2026-05-10 20:53:05.510,994,-0.41712537,-0.65270644,0.2751223,0.0,0.0,0.0
2026-05-10 20:53:05.520,995,-0.41712537,-0.65270644,0.2751223,0.0,0.0,0.0
2026-05-10 20:53:05.530,996,-0.41712537,-0.65270644,0.2751223,0.0,0.0,0.0
2026-05-10 20:53:05.540,997,-0.41712537,-0.65270644,0.2751223,0.0,0.0,0.0
2026-05-10 20:53:05.550,998,-0.41712537,-0.65270644,0.2751223,0.0,0.0,0.0
2026-05-10 20:53:05.560,999,-0.7866768566666668,-0.6697604466666668,0.19799693999999998,0.0,0.0,0.0
2026-05-10 20:53:05.570,1000,-0.9714526,-0.67828745,0.15943426,0.0,0.0,0.0
2026-05-10 20:53:05.580,1001,-0.9714526,-0.67828745,0.15943426,0.0,0.0,0.0
