timestamp,id,acc_x,acc_y,acc_z,gyro_x,gyro_y,gyro_z
2026-05-10 20:51:59.720,1,0.19928135,0.49622327,0.8804281,0.0,0.0,0.0
2026-05-10 20:51:59.730,2,0.227469425,0.487966375,0.9440902,0.0,0.0,0.0
2026-05-10 20:51:59.740,3,0.2556575,0.47970948,1.0077523,0.0,0.0,0.0
2026-05-10 20:51:59.750,4,0.2556575,0.47970948,1.0077523,0.0,0.0,0.0
2026-05-10 20:51:59.760,5,0.2556575,0.47970948,1.0077523,0.0,0.0,0.0
2026-05-10 20:51:59.770,6,0.261521415,0.45871560499999997,1.1197783000000001,0.0,0.0,0.0
2026-05-10 20:51:59.780,7,0.26284404,0.44342507499999995,1.28343275,0.0,0.0,0.0
2026-05-10 20:51:59.790,8,0.25830275,0.44912842,1.3350612,0.0,0.0,0.0
2026-05-10 20:51:59.800,9,0.25830275,0.4491284199999999,1.3350612,0.0,0.0,0.0
2026-05-10 20:51:59.810,10,0.2263455625,0.45634173,1.3350612,0.0,0.0,0.0
2026-05-10 20:51:59.820,11,0.130474,0.47798166,1.3350612,0.0,0.0,0.0
2026-05-10 20:51:59.830,12,0.130474,0.47798166,1.3350612,0.0,0.0,0.0
2026-05-10 20:51:59.840,13,0.130474,0.47798166,1.3350612,0.0,0.0,0.0
2026-05-10 20:51:59.850,14,0.130474,0.47798166,1.3350612,0.0,0.0,0.0
2026-05-10 20:51:59.860,15,0.130474,0.47798166,1.3350612,0.0,0.0,0.0
2026-05-10 20:51:59.870,16,0.130474,0.47798166,1.3350612,0.0,0.0,0.0
2026-05-10 20:51:59.880,17,0.130474,0.47798166,1.3350612,0.0,0.0,0.0
2026-05-10 20:51:59.890,18,0.130474,0.47798166,1.3350612,0.0,0.0,0.0
2026-05-10 20:51:59.900,19,0.130474,0.47798166,1.3350612,0.0,0.0,0.0
2026-05-10 20:51:59.910,20,0.130474,0.47798166,1.3350612,0.0,0.0,0.0
2026-05-10 20:51:59.920,21,0.130474,0.47798166,1.3350612,0.0,0.0,0.0
2026-05-10 20:51:59.930,22,0.026192660999999996,0.4787003,1.1388379,0.0,0.0,0.0
2026-05-10 20:51:59.940,23,0.026192660999999996,0.4787003,1.1388379,0.0,0.0,0.0
2026-05-10 20:51:59.950,24,0.026192661,0.4787003,1.1388379,0.0,0.0,0.0
2026-05-10 20:51:59.960,25,0.026192660999999996,0.4787003,1.1388379,0.0,0.0,0.0
2026-05-10 20:51:59.970,26,0.026192661,0.4787003,1.1388379,0.0,0.0,0.0
2026-05-10 20:51:59.980,27,-0.037813455,0.51876146,0.94851685,0.0,0.0,0.0
2026-05-10 20:51:59.990,28,-0.037813455,0.51876146,0.94851685,0.0,0.0,0.0
2026-05-10 20:52:00.000,29,-0.037813455,0.51876146,0.94851685,0.0,0.0,0.0
2026-05-10 20:52:00.010,30,-0.037813455,0.51876146,0.94851685,0.0,0.0,0.0
2026-05-10 20:52:00.020,31,-0.037813455,0.51876146,0.94851685,0.0,0.0,0.0
2026-05-10 20:52:00.030,32,-0.03611620766666667,0.5316054833333334,0.8745464,0.0,0.0,0.0
2026-05-10 20:52:00.040,33,-0.032721713,0.55729353,0.7266055,0.0,0.0,0.0
2026-05-10 20:52:00.050,34,-0.032721713,0.55729353,0.7266055000000001,0.0,0.0,0.0
2026-05-10 20:52:00.060,35,-0.032721713,0.55729353,0.7266055000000001,0.0,0.0,0.0
2026-05-10 20:52:00.070,36,-0.032721713,0.55729353,0.7266055000000001,0.0,0.0,0.0
2026-05-10 20:52:00.080,37,-0.032721713,0.55729353,0.7266055000000001,0.0,0.0,0.0
2026-05-10 20:52:00.090,38,-0.032721713,0.55729353,0.7266055,0.0,0.0,0.0
2026-05-10 20:52:00.100,39,-0.032721713,0.55729353,0.7266055000000001,0.0,0.0,0.0
2026-05-10 20:52:00.110,40,-0.032721713,0.55729353,0.7266055000000001,0.0,0.0,0.0
2026-05-10 20:52:00.120,41,-0.0142201836,0.5585168,0.6801223000000001,0.0,0.0,0.0
2026-05-10 20:52:00.130,42,0.0042813458,0.55974007,0.6336391,0.0,0.0,0.0
2026-05-10 20:52:00.140,43,0.0042813458,0.55974007,0.6336391,0.0,0.0,0.0
2026-05-10 20:52:00.150,44,0.0042813458,0.55974007,0.6336391,0.0,0.0,0.0
2026-05-10 20:52:00.160,45,0.0042813458,0.55974007,0.6336391,0.0,0.0,0.0
2026-05-10 20:52:00.170,46,0.030279050449999997,0.5526299800000001,0.60726295,0.0,0.0,0.0
2026-05-10 20:52:00.180,47,0.038944952,0.55025995,0.5984709,0.0,0.0,0.0
2026-05-10 20:52:00.190,48,0.038944952,0.55025995,0.5984709,0.0,0.0,0.0
2026-05-10 20:52:00.200,49,0.038944952,0.55025995,0.5984709,0.0,0.0,0.0
2026-05-10 20:52:00.210,50,0.038944952,0.55025995,0.5984709,0.0,0.0,0.0
2026-05-10 20:52:00.220,51,0.038944952,0.55025995,0.5984709,0.0,0.0,0.0
2026-05-10 20:52:00.230,52,0.038944952,0.55025995,0.5984709,0.0,0.0,0.0
2026-05-10 20:52:00.240,53,0.038944952,0.55025995,0.5984709,0.0,0.0,0.0
2026-05-10 20:52:00.250,54,0.038944952,0.55025995,0.5984709,0.0,0.0,0.0
2026-05-10 20:52:00.260,55,0.038944952,0.55025995,0.5984709,0.0,0.0,0.0
2026-05-10 20:52:00.270,56,0.038944952,0.55025995,0.5984709,0.0,0.0,0.0
2026-05-10 20:52:00.280,57,0.10948012,0.5362844,0.59897554,0.0,0.0,0.0
2026-05-10 20:52:00.290,58,0.10948012,0.5362844,0.59897554,0.0,0.0,0.0
2026-05-10 20:52:00.300,59,0.10948012,0.5362844,0.59897554,0.0,0.0,0.0
2026-05-10 20:52:00.310,60,0.10948012,0.5362844,0.59897554,0.0,0.0,0.0
2026-05-10 20:52:00.320,61,0.10948012,0.5362844,0.59897554,0.0,0.0,0.0
2026-05-10 20:52:00.330,62,0.10948012,0.5362844,0.59897554,0.0,0.0,0.0
2026-05-10 20:52:00.340,63,0.10948012,0.5362844,0.59897554,0.0,0.0,0.0
2026-05-10 20:52:00.350,64,0.10948012,0.5362844,0.59897554,0.0,0.0,0.0
2026-05-10 20:52:00.360,65,0.10948012,0.5362844,0.59897554,0.0,0.0,0.0
2026-05-10 20:52:00.370,66,0.10948012,0.5362844,0.59897554,0.0,0.0,0.0
2026-05-10 20:52:00.380,67,0.14506117,0.5236544,0.6431193,0.0,0.0,0.0
2026-05-10 20:52:00.390,68,0.14506117,0.5236544,0.6431193,0.0,0.0,0.0
2026-05-10 20:52:00.400,69,0.14506117,0.5236544,0.6431193,0.0,0.0,0.0
2026-05-10 20:52:00.410,70,0.14506117,0.5235524666666667,0.6682619999999999,0.0,0.0,0.0
2026-05-10 20:52:00.420,71,0.14506117,0.5233486,0.7185474,0.0,0.0,0.0
2026-05-10 20:52:00.430,72,0.14506117,0.5233486,0.7185474,0.0,0.0,0.0
2026-05-10 20:52:00.440,73,0.14506117,0.5233486,0.7185474,0.0,0.0,0.0
2026-05-10 20:52:00.450,74,0.14506117,0.5233486,0.7185474,0.0,0.0,0.0
2026-05-10 20:52:00.460,75,0.14506117,0.5233486,0.7185474,0.0,0.0,0.0
2026-05-10 20:52:00.470,76,0.14506117,0.5233486,0.7185474,0.0,0.0,0.0
2026-05-10 20:52:00.480,77,0.14506117,0.5233486,0.7185474,0.0,0.0,0.0
2026-05-10 20:52:00.490,78,0.14506117,0.5233486,0.7185474,0.0,0.0,0.0
2026-05-10 20:52:00.500,79,0.14506117,0.5233486,0.7185474,0.0,0.0,0.0
2026-05-10 20:52:00.510,80,0.14506117,0.5233486,0.7185474,0.0,0.0,0.0
2026-05-10 20:52:00.520,81,0.13826198999999997,0.52463302,0.78494904,0.0,0.0,0.0
2026-05-10 20:52:00.530,82,0.1348624,0.52527523,0.81814986,0.0,0.0,0.0
2026-05-10 20:52:00.540,83,0.1348624,0.52527523,0.81814986,0.0,0.0,0.0
2026-05-10 20:52:00.550,84,0.1348624,0.52527523,0.81814986,0.0,0.0,0.0
2026-05-10 20:52:00.560,85,0.1348624,0.52527523,0.81814986,0.0,0.0,0.0
2026-05-10 20:52:00.570,86,0.1348624,0.52527523,0.81814986,0.0,0.0,0.0
2026-05-10 20:52:00.580,87,0.1348624,0.52527523,0.81814986,0.0,0.0,0.0
2026-05-10 20:52:00.590,88,0.1348624,0.52527523,0.81814986,0.0,0.0,0.0
2026-05-10 20:52:00.600,89,0.1348624,0.52527523,0.81814986,0.0,0.0,0.0
2026-05-10 20:52:00.610,90,0.1348624,0.52527523,0.81814986,0.0,0.0,0.0
2026-05-10 20:52:00.620,91,0.1348624,0.52527523,0.81814986,0.0,0.0,0.0
2026-05-10 20:52:00.630,92,0.10509684400000001,0.5384658766666667,0.9075076200000001,0.0,0.0,0.0
2026-05-10 20:52:00.640,93,0.090214066,0.5450612,0.9521865000000002,0.0,0.0,0.0
2026-05-10 20:52:00.650,94,0.090214066,0.5450612,0.9521865000000002,0.0,0.0,0.0
2026-05-10 20:52:00.660,95,0.090214066,0.5450612,0.9521865,0.0,0.0,0.0
2026-05-10 20:52:00.670,96,0.090214066,0.5450612,0.9521865000000002,0.0,0.0,0.0
2026-05-10 20:52:00.680,97,0.090214066,0.5450612,0.9521865000000002,0.0,0.0,0.0
2026-05-10 20:52:00.690,98,0.090214066,0.5450612,0.9521865000000002,0.0,0.0,0.0
2026-05-10 20:52:00.700,99,0.08596840066666667,0.5458053333333334,0.953002,0.0,0.0,0.0
2026-05-10 20:52:00.710,100,0.07747707,0.5472936,0.954633,0.0,0.0,0.0
2026-05-10 20:52:00.720,101,0.07747707,0.5472936,0.954633,0.0,0.0,0.0
2026-05-10 20:52:00.730,102,0.06558104199999999,0.5474362933333333,0.9502191533333333,0.0,0.0,0.0
2026-05-10 20:52:00.740,103,0.059633028,0.54750764,0.9480122300000001,0.0,0.0,0.0
2026-05-10 20:52:00.750,104,0.05524974533333333,0.5493730933333333,0.9323139533333333,0.0,0.0,0.0
2026-05-10 20:52:00.760,105,0.04648317999999999,0.553104,0.9009174,0.0,0.0,0.0
2026-05-10 20:52:00.770,106,0.0480122325,0.55139911,0.8909785674999999,0.0,0.0,0.0
2026-05-10 20:52:00.780,107,0.06985729,0.5381906466666667,0.8474312233333334,0.0,0.0,0.0
2026-05-10 20:52:00.790,108,0.07848624,0.53414375,0.8405657999999999,0.0,0.0,0.0
2026-05-10 20:52:00.800,109,0.07848624,0.53414375,0.8405658,0.0,0.0,0.0
2026-05-10 20:52:00.810,110,0.07848624,0.53414375,0.8405657999999999,0.0,0.0,0.0
2026-05-10 20:52:00.820,111,0.07848624,0.53414375,0.8405657999999999,0.0,0.0,0.0
2026-05-10 20:52:00.830,112,0.07848624,0.53414375,0.8405658,0.0,0.0,0.0
2026-05-10 20:52:00.840,113,0.07848624,0.53414375,0.8405657999999999,0.0,0.0,0.0
2026-05-10 20:52:00.850,114,0.082694955,0.5298662075,0.8450038725,0.0,0.0,0.0
2026-05-10 20:52:00.860,115,0.08409786000000001,0.52844036,0.84648323,0.0,0.0,0.0
2026-05-10 20:52:00.870,116,0.09136595333333335,0.5179102800000001,0.8622528300000001,0.0,0.0,0.0
2026-05-10 20:52:00.880,117,0.095,0.51264524,0.87013763,0.0,0.0,0.0
2026-05-10 20:52:00.890,118,0.09500000000000001,0.51264524,0.87013763,0.0,0.0,0.0
2026-05-10 20:52:00.900,119,0.09500000000000001,0.51264524,0.87013763,0.0,0.0,0.0
2026-05-10 20:52:00.910,120,0.095,0.51264524,0.87013763,0.0,0.0,0.0
2026-05-10 20:52:00.920,121,0.09500000000000001,0.51264524,0.87013763,0.0,0.0,0.0
2026-05-10 20:52:00.930,122,0.095,0.51264524,0.87013763,0.0,0.0,0.0
2026-05-10 20:52:00.940,123,0.09500000000000001,0.51264524,0.87013763,0.0,0.0,0.0
2026-05-10 20:52:00.950,124,0.09500000000000001,0.51264524,0.87013763,0.0,0.0,0.0
2026-05-10 20:52:00.960,125,0.095,0.51264524,0.87013763,0.0,0.0,0.0
2026-05-10 20:52:00.970,126,0.09500000000000001,0.51264524,0.87013763,0.0,0.0,0.0
2026-05-10 20:52:00.980,127,0.095,0.51264524,0.87013763,0.0,0.0,0.0
2026-05-10 20:52:00.990,128,0.09500000000000001,0.51264524,0.87013763,0.0,0.0,0.0
2026-05-10 20:52:01.000,129,0.095,0.51264524,0.87013763,0.0,0.0,0.0
2026-05-10 20:52:01.010,130,0.095,0.51264524,0.87013763,0.0,0.0,0.0
2026-05-10 20:52:01.020,131,0.095,0.51264524,0.87013763,0.0,0.0,0.0
2026-05-10 20:52:01.030,132,-0.3358868666666667,0.14951068,0.82864934,0.0,0.0,0.0
2026-05-10 20:52:01.040,133,-0.7667737333333334,-0.21362388,0.78716105,0.0,0.0,0.0
2026-05-10 20:52:01.050,134,-1.1976606,-0.57675844,0.74567276,0.0,0.0,0.0
2026-05-10 20:52:01.060,135,-1.1976606,-0.57675844,0.74567276,0.0,0.0,0.0
2026-05-10 20:52:01.070,136,-1.1976606,-0.57675844,0.74567276,0.0,0.0,0.0
2026-05-10 20:52:01.080,137,-1.1976606,-0.57675844,0.74567276,0.0,0.0,0.0
2026-05-10 20:52:01.090,138,-1.1976606,-0.57675844,0.74567276,0.0,0.0,0.0
2026-05-10 20:52:01.100,139,-1.1976606,-0.57675844,0.74567276,0.0,0.0,0.0
2026-05-10 20:52:01.110,140,-1.1976606,-0.57675844,0.74567276,0.0,0.0,0.0
2026-05-10 20:52:01.120,141,-1.1976606,-0.57675844,0.74567276,0.0,0.0,0.0
2026-05-10 20:52:01.130,142,-1.1976606,-0.57675844,0.74567276,0.0,0.0,0.0
2026-05-10 20:52:01.140,143,-0.81206422,-0.48270132000000004,1.01804792,0.0,0.0,0.0
2026-05-10 20:52:01.150,144,-0.61926603,-0.43567275999999994,1.1542355,0.0,0.0,0.0
2026-05-10 20:52:01.160,145,-0.61926603,-0.43567276,1.1542355,0.0,0.0,0.0
2026-05-10 20:52:01.170,146,-0.61926603,-0.43567275999999994,1.1542355,0.0,0.0,0.0
2026-05-10 20:52:01.180,147,-0.61926603,-0.43567275999999994,1.1542355,0.0,0.0,0.0
2026-05-10 20:52:01.190,148,-0.61926603,-0.43567276,1.1542355,0.0,0.0,0.0
2026-05-10 20:52:01.200,149,-0.70173293,-0.5117533066666667,1.1422732,0.0,0.0,0.0
2026-05-10 20:52:01.210,150,-0.86666673,-0.6639144,1.1183486,0.0,0.0,0.0
2026-05-10 20:52:01.220,151,-0.86666673,-0.6639144,1.1183486,0.0,0.0,0.0
2026-05-10 20:52:01.230,152,-0.86666673,-0.6639144,1.1183486,0.0,0.0,0.0
2026-05-10 20:52:01.240,153,-0.86666673,-0.6639144,1.1183486,0.0,0.0,0.0
2026-05-10 20:52:01.250,154,-0.86666673,-0.6639144,1.1183486,0.0,0.0,0.0
2026-05-10 20:52:01.260,155,-0.86666673,-0.6639144,1.1183486,0.0,0.0,0.0
2026-05-10 20:52:01.270,156,-0.86666673,-0.6639144,1.1183486,0.0,0.0,0.0
2026-05-10 20:52:01.280,157,-0.86666673,-0.6639144,1.1183486,0.0,0.0,0.0
2026-05-10 20:52:01.290,158,-0.86666673,-0.6639144,1.1183486,0.0,0.0,0.0
2026-05-10 20:52:01.300,159,-0.86666673,-0.6639144,1.1183486,0.0,0.0,0.0
2026-05-10 20:52:01.310,160,-0.86666673,-0.6639144,1.1183486,0.0,0.0,0.0
2026-05-10 20:52:01.320,161,-0.86666673,-0.6639144,1.1183486,0.0,0.0,0.0
2026-05-10 20:52:01.330,162,-0.86666673,-0.6639144,1.1183486,0.0,0.0,0.0
2026-05-10 20:52:01.340,163,-0.86666673,-0.6639144,1.1183486,0.0,0.0,0.0
2026-05-10 20:52:01.350,164,-0.86666673,-0.6639144,1.1183486,0.0,0.0,0.0
2026-05-10 20:52:01.360,165,-0.86666673,-0.6639144,1.1183486,0.0,0.0,0.0
2026-05-10 20:52:01.370,166,-0.86666673,-0.6639144,1.1183486,0.0,0.0,0.0
2026-05-10 20:52:01.380,167,-0.86666673,-0.6639144,1.1183486,0.0,0.0,0.0
2026-05-10 20:52:01.390,168,-0.86666673,-0.6639144,1.1183486,0.0,0.0,0.0
2026-05-10 20:52:01.400,169,-0.86666673,-0.6639144,1.1183486,0.0,0.0,0.0
2026-05-10 20:52:01.410,170,-0.86666673,-0.6639144,1.1183486,0.0,0.0,0.0
2026-05-10 20:52:01.420,171,-0.86666673,-0.6639144,1.1183486,0.0,0.0,0.0
2026-05-10 20:52:01.430,172,-0.86666673,-0.6639144,1.1183486,0.0,0.0,0.0
2026-05-10 20:52:01.440,173,-1.0008409975,-0.720462575,1.115290525,0.0,0.0,0.0
2026-05-10 20:52:01.450,174,-1.4033638,-0.8901071000000002,1.1061163,0.0,0.0,0.0
2026-05-10 20:52:01.460,175,-1.7310397000000002,-0.9073395,1.04668963,0.0,0.0,0.0
2026-05-10 20:52:01.470,176,-2.0587156,-0.9245719,0.9872629600000001,0.0,0.0,0.0
2026-05-10 20:52:01.480,177,-2.0587156,-0.9245719,0.98726296,0.0,0.0,0.0
2026-05-10 20:52:01.490,178,-2.0587156,-0.9245719,0.9872629600000001,0.0,0.0,0.0
2026-05-10 20:52:01.500,179,-0.5313990500000001,-0.2137615,0.5035168015,0.0,0.0,0.0
2026-05-10 20:52:01.510,180,0.9959175,0.4970489,0.019770643,0.0,0.0,0.0
2026-05-10 20:52:01.520,181,0.9959175,0.4970489,0.019770643,0.0,0.0,0.0
2026-05-10 20:52:01.530,182,1.0286086333333333,0.4894036466666667,0.018649338,0.0,0.0,0.0
2026-05-10 20:52:01.540,183,1.0939909,0.47411314,0.016406728,0.0,0.0,0.0
2026-05-10 20:52:01.550,184,1.0939909,0.47411314,0.016406728,0.0,0.0,0.0
2026-05-10 20:52:01.560,185,1.0939909,0.47411314,0.016406728,0.0,0.0,0.0
2026-05-10 20:52:01.570,186,1.0939909,0.47411314,0.016406728,0.0,0.0,0.0
2026-05-10 20:52:01.580,187,0.9588227000000001,0.53248216,-0.008394495333333333,0.0,0.0,0.0
2026-05-10 20:52:01.590,188,0.8912386,0.56166667,-0.020795107,0.0,0.0,0.0
2026-05-10 20:52:01.600,189,0.8912386,0.56166667,-0.020795107,0.0,0.0,0.0
2026-05-10 20:52:01.610,190,0.8912386,0.56166667,-0.020795107,0.0,0.0,0.0
2026-05-10 20:52:01.620,191,0.8912386,0.56166667,-0.020795107,0.0,0.0,0.0
2026-05-10 20:52:01.630,192,0.8912386,0.56166667,-0.020795107,0.0,0.0,0.0
2026-05-10 20:52:01.640,193,0.8912386,0.56166667,-0.020795107,0.0,0.0,0.0
2026-05-10 20:52:01.650,194,0.8912386,0.56166667,-0.020795107,0.0,0.0,0.0
2026-05-10 20:52:01.660,195,0.8136238666666666,0.5910958233333333,-0.023241590999999995,0.0,0.0,0.0
2026-05-10 20:52:01.670,196,0.7748165,0.6058104,-0.024464833,0.0,0.0,0.0
2026-05-10 20:52:01.680,197,0.7748165,0.6058104,-0.024464833000000002,0.0,0.0,0.0
2026-05-10 20:52:01.690,198,0.7748165,0.6058104,-0.024464833,0.0,0.0,0.0
2026-05-10 20:52:01.700,199,0.6700968266666667,0.6311264,0.00030581000000000125,0.0,0.0,0.0
2026-05-10 20:52:01.710,200,0.39949540333333333,0.7237563666666667,0.052940878999999996,0.0,0.0,0.0
2026-05-10 20:52:01.720,201,0.27717125,0.8077523000000001,0.059128445,0.0,0.0,0.0
2026-05-10 20:52:01.730,202,0.27717125,0.8077523000000001,0.059128445,0.0,0.0,0.0
2026-05-10 20:52:01.740,203,0.251861615,0.815928875,0.03381880925,0.0,0.0,0.0
2026-05-10 20:52:01.750,204,0.24342507,0.8186544000000001,0.025382264,0.0,0.0,0.0
2026-05-10 20:52:01.760,205,0.24342507,0.8186544000000001,0.025382264,0.0,0.0,0.0
2026-05-10 20:52:01.770,206,0.2419686525,0.8467163550000001,0.014980886750000002,0.0,0.0,0.0
2026-05-10 20:52:01.780,207,0.24148318,0.85607034,0.011513761000000003,0.0,0.0,0.0
2026-05-10 20:52:01.790,208,0.24400102,0.8579357933333333,0.022492354000000003,0.0,0.0,0.0
2026-05-10 20:52:01.800,209,0.2490367,0.8616667,0.04444954,0.0,0.0,0.0
2026-05-10 20:52:01.810,210,0.2490367,0.8616667000000001,0.04444954,0.0,0.0,0.0
2026-05-10 20:52:01.820,211,0.2490367,0.8616667000000001,0.04444954,0.0,0.0,0.0
2026-05-10 20:52:01.830,212,0.24060652000000002,0.8700968333333333,0.08433740666666667,0.0,0.0,0.0
2026-05-10 20:52:01.840,213,0.23639143,0.8743119,0.10428134,0.0,0.0,0.0
2026-05-10 20:52:01.850,214,0.23639142999999999,0.8743119,0.10428134,0.0,0.0,0.0
2026-05-10 20:52:01.860,215,0.23639143,0.8743119,0.10428134,0.0,0.0,0.0
2026-05-10 20:52:01.870,216,0.23639142999999999,0.8743119,0.10428134,0.0,0.0,0.0
2026-05-10 20:52:01.880,217,0.23639142999999999,0.8743119,0.10428134,0.0,0.0,0.0
2026-05-10 20:52:01.890,218,0.239808875,0.880428125,0.13904434,0.0,0.0,0.0
2026-05-10 20:52:01.900,219,0.24322632,0.88654435,0.17380734,0.0,0.0,0.0
2026-05-10 20:52:01.910,220,0.24322632,0.88654435,0.17380734,0.0,0.0,0.0
2026-05-10 20:52:01.920,221,0.24322632,0.88654435,0.17380734,0.0,0.0,0.0
2026-05-10 20:52:01.930,222,0.24322632,0.88654435,0.17380734,0.0,0.0,0.0
2026-05-10 20:52:01.940,223,0.24322632,0.88654435,0.17380734,0.0,0.0,0.0
2026-05-10 20:52:01.950,224,0.24322632,0.88654435,0.17380734,0.0,0.0,0.0
2026-05-10 20:52:01.960,225,0.24322632,0.88654435,0.17380734,0.0,0.0,0.0
2026-05-10 20:52:01.970,226,0.24322632,0.88654435,0.17380734,0.0,0.0,0.0
2026-05-10 20:52:01.980,227,0.24322632,0.88654435,0.17380734,0.0,0.0,0.0
2026-05-10 20:52:01.990,228,0.313302755,0.8615978525,0.28927370750000003,0.0,0.0,0.0
2026-05-10 20:52:02.000,229,0.39185014,0.85504586,0.3647247900000001,0.0,0.0,0.0
2026-05-10 20:52:02.010,230,0.39185014,0.85504586,0.3647247900000001,0.0,0.0,0.0
2026-05-10 20:52:02.020,231,0.6034709,0.8750306,0.40978593,0.0,0.0,0.0
2026-05-10 20:52:02.030,232,0.6034709,0.8750306,0.40978593,0.0,0.0,0.0
2026-05-10 20:52:02.040,233,0.6034709,0.8750306,0.40978593,0.0,0.0,0.0
2026-05-10 20:52:02.050,234,0.6034709,0.8750306,0.40978593,0.0,0.0,0.0
2026-05-10 20:52:02.060,235,0.6164678625,0.8272706599999999,0.38723241750000004,0.0,0.0,0.0
2026-05-10 20:52:02.070,236,0.65545875,0.68399084,0.31957188,0.0,0.0,0.0
2026-05-10 20:52:02.080,237,0.65545875,0.68399084,0.31957188,0.0,0.0,0.0
2026-05-10 20:52:02.090,238,0.65545875,0.68399084,0.31957188,0.0,0.0,0.0
2026-05-10 20:52:02.100,239,0.65545875,0.68399084,0.31957188,0.0,0.0,0.0
2026-05-10 20:52:02.110,240,0.65545875,0.68399084,0.31957188,0.0,0.0,0.0
2026-05-10 20:52:02.120,241,0.65545875,0.68399084,0.31957188,0.0,0.0,0.0
2026-05-10 20:52:02.130,242,0.65545875,0.68399084,0.31957188,0.0,0.0,0.0
2026-05-10 20:52:02.140,243,0.65545875,0.68399084,0.31957188,0.0,0.0,0.0
2026-05-10 20:52:02.150,244,0.65545875,0.68399084,0.31957188,0.0,0.0,0.0
2026-05-10 20:52:02.160,245,0.65545875,0.68399084,0.31957188,0.0,0.0,0.0
2026-05-10 20:52:02.170,246,0.7130963324999999,0.650504585,0.31735857,0.0,0.0,0.0
2026-05-10 20:52:02.180,247,0.73230886,0.6393425,0.3166208,0.0,0.0,0.0
2026-05-10 20:52:02.190,248,0.73230886,0.6393425,0.3166208,0.0,0.0,0.0
2026-05-10 20:52:02.200,249,0.73399083,0.61941895,0.31549694,0.0,0.0,0.0
2026-05-10 20:52:02.210,250,0.7356728,0.5994954,0.31437308,0.0,0.0,0.0
2026-05-10 20:52:02.220,251,0.7356728,0.5994954,0.31437308,0.0,0.0,0.0
2026-05-10 20:52:02.230,252,0.7356728,0.5994954,0.31437308,0.0,0.0,0.0
2026-05-10 20:52:02.240,253,0.7356728,0.5994954,0.31437308,0.0,0.0,0.0
2026-05-10 20:52:02.250,254,0.7356728,0.5994954,0.31437308,0.0,0.0,0.0
2026-05-10 20:52:02.260,255,0.7288532,0.56096333,0.27584097,0.0,0.0,0.0
2026-05-10 20:52:02.270,256,0.7288532,0.56096333,0.27584097,0.0,0.0,0.0
2026-05-10 20:52:02.280,257,0.7174005999999999,0.5403720933333332,0.26452599000000004,0.0,0.0,0.0
2026-05-10 20:52:02.290,258,0.6944954,0.49918962,0.24189603,0.0,0.0,0.0
2026-05-10 20:52:02.300,259,0.6944954,0.49918961999999995,0.24189603,0.0,0.0,0.0
2026-05-10 20:52:02.310,260,0.6944954,0.49918961999999995,0.24189603,0.0,0.0,0.0
2026-05-10 20:52:02.320,261,0.6944954,0.49918962,0.24189603,0.0,0.0,0.0
2026-05-10 20:52:02.330,262,0.6944954,0.49918961999999995,0.24189603,0.0,0.0,0.0
2026-05-10 20:52:02.340,263,0.6944954,0.49918962,0.24189603,0.0,0.0,0.0
2026-05-10 20:52:02.350,264,0.6827421066666667,0.4295259933333333,0.22891946333333335,0.0,0.0,0.0
2026-05-10 20:52:02.360,265,0.67686546,0.39469417999999995,0.22243117999999998,0.0,0.0,0.0
2026-05-10 20:52:02.370,266,0.67686546,0.39469417999999995,0.22243117999999998,0.0,0.0,0.0
2026-05-10 20:52:02.380,267,0.67686546,0.39469418,0.22243118,0.0,0.0,0.0
2026-05-10 20:52:02.390,268,0.67686546,0.39469418,0.22243118,0.0,0.0,0.0
2026-05-10 20:52:02.400,269,0.67686546,0.39469418,0.22243118,0.0,0.0,0.0
2026-05-10 20:52:02.410,270,0.67686546,0.39469418,0.22243118,0.0,0.0,0.0
2026-05-10 20:52:02.420,271,0.67686546,0.39469417999999995,0.22243117999999998,0.0,0.0,0.0
2026-05-10 20:52:02.430,272,0.67686546,0.39469417999999995,0.22243117999999998,0.0,0.0,0.0
2026-05-10 20:52:02.440,273,0.67686546,0.39469417999999995,0.22243117999999998,0.0,0.0,0.0
2026-05-10 20:52:02.450,274,0.6675841,0.311315,0.20316514,0.0,0.0,0.0
2026-05-10 20:52:02.460,275,0.6675841,0.311315,0.20316514,0.0,0.0,0.0
2026-05-10 20:52:02.470,276,0.6675841,0.311315,0.20316514,0.0,0.0,0.0
2026-05-10 20:52:02.480,277,0.6663965433333333,0.2986085666666667,0.19867992,0.0,0.0,0.0
2026-05-10 20:52:02.490,278,0.66402143,0.2731957,0.18970948,0.0,0.0,0.0
2026-05-10 20:52:02.500,279,0.66402143,0.2731957,0.18970948,0.0,0.0,0.0
2026-05-10 20:52:02.510,280,0.66402143,0.2731957,0.18970948,0.0,0.0,0.0
2026-05-10 20:52:02.520,281,0.66402143,0.2731957,0.18970948,0.0,0.0,0.0
2026-05-10 20:52:02.530,282,0.66402143,0.2731957,0.18970948,0.0,0.0,0.0
2026-05-10 20:52:02.540,283,0.66402143,0.2731957,0.18970948,0.0,0.0,0.0
2026-05-10 20:52:02.550,284,0.6712895033333334,0.24975025333333334,0.18446992666666664,0.0,0.0,0.0
2026-05-10 20:52:02.560,285,0.67492354,0.23802753,0.18185014999999996,0.0,0.0,0.0
2026-05-10 20:52:02.570,286,0.67492354,0.23802753,0.18185014999999996,0.0,0.0,0.0
2026-05-10 20:52:02.580,287,0.67492354,0.23802753,0.18185015,0.0,0.0,0.0
2026-05-10 20:52:02.590,288,0.67492354,0.23802753,0.18185014999999996,0.0,0.0,0.0
2026-05-10 20:52:02.600,289,0.67492354,0.23802753,0.18185014999999996,0.0,0.0,0.0
2026-05-10 20:52:02.610,290,0.67492354,0.23802753,0.18185014999999996,0.0,0.0,0.0
2026-05-10 20:52:02.620,291,0.67492354,0.23802753,0.18185015,0.0,0.0,0.0
2026-05-10 20:52:02.630,292,0.6450917266666667,0.18630989333333334,0.17233944333333331,0.0,0.0,0.0
2026-05-10 20:52:02.640,293,0.5854281,0.08287462,0.15331803,0.0,0.0,0.0
2026-05-10 20:52:02.650,294,0.5854281,0.08287462,0.15331803,0.0,0.0,0.0
2026-05-10 20:52:02.660,295,0.5854281,0.08287462,0.15331803,0.0,0.0,0.0
2026-05-10 20:52:02.670,296,0.5854281,0.08287462,0.15331803,0.0,0.0,0.0
2026-05-10 20:52:02.680,297,0.6055313625000001,0.1729319575,0.1467354675,0.0,0.0,0.0
2026-05-10 20:52:02.690,298,0.61223245,0.20295107,0.14454128,0.0,0.0,0.0
2026-05-10 20:52:02.700,299,0.61223245,0.20295107,0.14454128,0.0,0.0,0.0
2026-05-10 20:52:02.710,300,0.5080173366666667,0.09160550346666667,0.2040723733333333,0.0,0.0,0.0
2026-05-10 20:52:02.720,301,0.3911315,-0.0073394496,0.23383792,0.0,0.0,0.0
2026-05-10 20:52:02.730,302,0.3911315,-0.0073394496,0.23383792,0.0,0.0,0.0
2026-05-10 20:52:02.740,303,0.3911315,-0.0073394496,0.23383792,0.0,0.0,0.0
2026-05-10 20:52:02.750,304,0.3911315,-0.0073394496,0.23383792,0.0,0.0,0.0
2026-05-10 20:52:02.760,305,0.3511009133333334,-0.0096534152,0.20814984666666667,0.0,0.0,0.0
2026-05-10 20:52:02.770,306,0.13877166,-0.05668195933333334,0.14759939,0.0,0.0,0.0
2026-05-10 20:52:02.780,307,-0.006182466666666664,-0.07587666,0.12239042333333333,0.0,0.0,0.0
2026-05-10 20:52:02.790,308,-0.10377675999999998,-0.0683945,0.11967891000000001,0.0,0.0,0.0
2026-05-10 20:52:02.800,309,-0.10377675999999998,-0.0683945,0.11967891000000001,0.0,0.0,0.0
2026-05-10 20:52:02.810,310,-0.10377675999999998,-0.0683945,0.11967891000000001,0.0,0.0,0.0
2026-05-10 20:52:02.820,311,-0.10377675999999998,-0.0683945,0.11967891000000001,0.0,0.0,0.0
2026-05-10 20:52:02.830,312,-0.10377676,-0.0683945,0.11967891,0.0,0.0,0.0
2026-05-10 20:52:02.840,313,-0.16772171333333333,-0.08011723333333333,0.15090214999999998,0.0,0.0,0.0
2026-05-10 20:52:02.850,314,-0.29561162,-0.1035627,0.21334863,0.0,0.0,0.0
2026-05-10 20:52:02.860,315,-0.358279825,-0.10366591,0.2627637625,0.0,0.0,0.0
2026-05-10 20:52:02.870,316,-0.61926603,-0.10255351,0.44597858,0.0,0.0,0.0
2026-05-10 20:52:02.880,317,-0.61926603,-0.10255351,0.44597858,0.0,0.0,0.0
2026-05-10 20:52:02.890,318,-0.61926603,-0.10255351,0.44597858,0.0,0.0,0.0
2026-05-10 20:52:02.900,319,-0.61926603,-0.10255351,0.44597858,0.0,0.0,0.0
2026-05-10 20:52:02.910,320,-0.61926603,-0.10255351,0.44597858,0.0,0.0,0.0
2026-05-10 20:52:02.920,321,-0.61967885,-0.13527523,0.44720182,0.0,0.0,0.0
2026-05-10 20:52:02.930,322,-0.61967885,-0.13527523,0.44720182,0.0,0.0,0.0
2026-05-10 20:52:02.940,323,-0.8376681749999999,-0.155045875,0.329051985,0.0,0.0,0.0
2026-05-10 20:52:02.950,324,-1.0556575,-0.17481652,0.21090215,0.0,0.0,0.0
2026-05-10 20:52:02.960,325,-1.0895005,-0.2333996,0.20764016999999999,0.0,0.0,0.0
2026-05-10 20:52:02.970,326,-1.0807339,-0.2961315,0.2653364,0.0,0.0,0.0
2026-05-10 20:52:02.980,327,-1.0807339,-0.2961315,0.2653364,0.0,0.0,0.0
2026-05-10 20:52:02.990,328,-1.0807339,-0.2961315,0.2653364,0.0,0.0,0.0
2026-05-10 20:52:03.000,329,-1.0807339,-0.2961315,0.2653364,0.0,0.0,0.0
2026-05-10 20:52:03.010,330,-1.0807339,-0.2961315,0.2653364,0.0,0.0,0.0
2026-05-10 20:52:03.020,331,-0.9846024999999999,-0.23944955,0.3019419,0.0,0.0,0.0
2026-05-10 20:52:03.030,332,-0.9846025,-0.23944955,0.3019419,0.0,0.0,0.0
2026-05-10 20:52:03.040,333,-0.9846024999999999,-0.23944955,0.3019419,0.0,0.0,0.0
2026-05-10 20:52:03.050,334,-0.9846024999999999,-0.23944955,0.3019419,0.0,0.0,0.0
2026-05-10 20:52:03.060,335,-0.9846024999999999,-0.23944955,0.3019419,0.0,0.0,0.0
2026-05-10 20:52:03.070,336,-0.918168925,-0.2645298125,0.3321368475,0.0,0.0,0.0
2026-05-10 20:52:03.080,337,-0.8960244,-0.2728899,0.34220183,0.0,0.0,0.0
2026-05-10 20:52:03.090,338,-0.8960244,-0.2728899,0.34220183,0.0,0.0,0.0
2026-05-10 20:52:03.100,339,-0.8589194400000001,-0.18502038,0.4857288766666667,0.0,0.0,0.0
2026-05-10 20:52:03.110,340,-0.84036696,-0.14108562,0.5574924,0.0,0.0,0.0
2026-05-10 20:52:03.120,341,-0.84036696,-0.14108562,0.5574924,0.0,0.0,0.0
2026-05-10 20:52:03.130,342,-0.84036696,-0.14108562,0.5574924,0.0,0.0,0.0
2026-05-10 20:52:03.140,343,-0.84036696,-0.14108562,0.5574924,0.0,0.0,0.0
2026-05-10 20:52:03.150,344,-0.8575993833333334,-0.22459735333333333,0.7930326666666666,0.0,0.0,0.0
2026-05-10 20:52:03.160,345,-0.8044878,-0.282056565,0.7879205499999999,0.0,0.0,0.0
2026-05-10 20:52:03.170,346,-0.7605505,-0.31681955,0.7510704,0.0,0.0,0.0
2026-05-10 20:52:03.180,347,-0.7605505,-0.31681955,0.7510704,0.0,0.0,0.0
2026-05-10 20:52:03.190,348,-0.7605505,-0.31681955,0.7510704,0.0,0.0,0.0
2026-05-10 20:52:03.200,349,-0.7605505,-0.31681955,0.7510704,0.0,0.0,0.0
2026-05-10 20:52:03.210,350,-0.7605505,-0.31681955,0.7510704,0.0,0.0,0.0
2026-05-10 20:52:03.220,351,-0.7605505,-0.31681955,0.7510704,0.0,0.0,0.0
2026-05-10 20:52:03.230,352,-0.7605505,-0.31681955,0.7510704,0.0,0.0,0.0
2026-05-10 20:52:03.240,353,-0.7195719,-0.45157492,0.7258868,0.0,0.0,0.0
2026-05-10 20:52:03.250,354,-0.7195719,-0.45157492,0.7258868,0.0,0.0,0.0
2026-05-10 20:52:03.260,355,-0.7195719,-0.45157492,0.7258868,0.0,0.0,0.0
2026-05-10 20:52:03.270,356,-0.7195719,-0.45157492,0.7258868,0.0,0.0,0.0
2026-05-10 20:52:03.280,357,-0.7195719,-0.45157492,0.7258868,0.0,0.0,0.0
2026-05-10 20:52:03.290,358,-0.7195719,-0.45157492,0.7258868,0.0,0.0,0.0
2026-05-10 20:52:03.300,359,-0.7195719,-0.45157492,0.7258868,0.0,0.0,0.0
2026-05-10 20:52:03.310,360,-0.7195719,-0.45157492,0.7258868,0.0,0.0,0.0
2026-05-10 20:52:03.320,361,-0.7195719,-0.45157492,0.7258868,0.0,0.0,0.0
2026-05-10 20:52:03.330,362,-0.7195719,-0.45157492,0.7258868,0.0,0.0,0.0
2026-05-10 20:52:03.340,363,-0.7195719,-0.45157492,0.7258868,0.0,0.0,0.0
2026-05-10 20:52:03.350,364,-0.7195719,-0.45157491999999994,0.7258868,0.0,0.0,0.0
2026-05-10 20:52:03.360,365,-0.7195719,-0.45157491999999994,0.7258868,0.0,0.0,0.0
2026-05-10 20:52:03.370,366,-0.7195719,-0.45157491999999994,0.7258868,0.0,0.0,0.0
2026-05-10 20:52:03.380,367,-0.7195719,-0.45157491999999994,0.7258868,0.0,0.0,0.0
2026-05-10 20:52:03.390,368,-0.7195719,-0.45157492,0.7258868,0.0,0.0,0.0
2026-05-10 20:52:03.400,369,-0.7309531433333333,-0.4801172466666667,0.72541281,0.0,0.0,0.0
2026-05-10 20:52:03.410,370,-0.75371563,-0.5372019,0.72446483,0.0,0.0,0.0
2026-05-10 20:52:03.420,371,-0.75371563,-0.5372019,0.72446483,0.0,0.0,0.0
2026-05-10 20:52:03.430,372,-0.75371563,-0.5372019,0.72446483,0.0,0.0,0.0
2026-05-10 20:52:03.440,373,-0.75371563,-0.5372019,0.72446483,0.0,0.0,0.0
2026-05-10 20:52:03.450,374,-0.75371563,-0.5372019,0.72446483,0.0,0.0,0.0
2026-05-10 20:52:03.460,375,-0.75371563,-0.5372019,0.72446483,0.0,0.0,0.0
2026-05-10 20:52:03.470,376,-0.75371563,-0.5372019,0.72446483,0.0,0.0,0.0
2026-05-10 20:52:03.480,377,-0.75371563,-0.5372019,0.72446483,0.0,0.0,0.0
2026-05-10 20:52:03.490,378,-0.75371563,-0.5372019,0.72446483,0.0,0.0,0.0
2026-05-10 20:52:03.500,379,-0.75371563,-0.5372019,0.72446483,0.0,0.0,0.0
2026-05-10 20:52:03.510,380,-0.79816514,-0.577263,0.7225229,0.0,0.0,0.0
2026-05-10 20:52:03.520,381,-0.79816514,-0.577263,0.7225229,0.0,0.0,0.0
2026-05-10 20:52:03.530,382,-1.21448,-0.617737,0.6614679,0.0,0.0,0.0
2026-05-10 20:52:03.540,383,-1.21448,-0.617737,0.6614679,0.0,0.0,0.0
2026-05-10 20:52:03.550,384,-1.21448,-0.617737,0.6614679,0.0,0.0,0.0
2026-05-10 20:52:03.560,385,-1.21448,-0.617737,0.6614679,0.0,0.0,0.0
2026-05-10 20:52:03.570,386,-1.21448,-0.617737,0.6614679,0.0,0.0,0.0
2026-05-10 20:52:03.580,387,-1.21448,-0.617737,0.6614679,0.0,0.0,0.0
2026-05-10 20:52:03.590,388,-1.21448,-0.617737,0.6614679,0.0,0.0,0.0
2026-05-10 20:52:03.600,389,-1.21448,-0.617737,0.6614679,0.0,0.0,0.0
2026-05-10 20:52:03.610,390,-1.21448,-0.617737,0.6614679,0.0,0.0,0.0
2026-05-10 20:52:03.620,391,-1.21448,-0.617737,0.6614679,0.0,0.0,0.0
2026-05-10 20:52:03.630,392,-1.3170285333333334,-0.659735,0.6899388599999999,0.0,0.0,0.0
2026-05-10 20:52:03.640,393,-1.4912385,-0.6795107000000001,0.80714065,0.0,0.0,0.0
2026-05-10 20:52:03.650,394,-1.4912385,-0.6795107,0.80714065,0.0,0.0,0.0
2026-05-10 20:52:03.660,395,-1.4912385,-0.6795107000000001,0.80714065,0.0,0.0,0.0
2026-05-10 20:52:03.670,396,-1.4912385,-0.6795107000000001,0.80714065,0.0,0.0,0.0
2026-05-10 20:52:03.680,397,-1.4912385,-0.6795107000000001,0.80714065,0.0,0.0,0.0
2026-05-10 20:52:03.690,398,-1.4912385,-0.6795107,0.80714065,0.0,0.0,0.0
2026-05-10 20:52:03.700,399,-1.4912385,-0.6795107000000001,0.80714065,0.0,0.0,0.0
2026-05-10 20:52:03.710,400,-1.4912385,-0.6795107000000001,0.80714065,0.0,0.0,0.0
2026-05-10 20:52:03.720,401,-1.337133025,-0.712817275,0.913302775,0.0,0.0,0.0
2026-05-10 20:52:03.730,402,-1.0680887,-0.7427064,1.0194649,0.0,0.0,0.0
2026-05-10 20:52:03.740,403,-1.0680887,-0.7427064,1.0194649,0.0,0.0,0.0
2026-05-10 20:52:03.750,404,-1.0680887,-0.7427064,1.0194649,0.0,0.0,0.0
2026-05-10 20:52:03.760,405,-0.9728797,-0.77118758,0.97162594,0.0,0.0,0.0
2026-05-10 20:52:03.770,406,-0.9252752,-0.78542817,0.94770646,0.0,0.0,0.0
2026-05-10 20:52:03.780,407,-0.9252752000000001,-0.78542817,0.94770646,0.0,0.0,0.0
2026-05-10 20:52:03.790,408,-0.9252752,-0.78542817,0.94770646,0.0,0.0,0.0
2026-05-10 20:52:03.800,409,-0.9252752000000001,-0.78542817,0.94770646,0.0,0.0,0.0
2026-05-10 20:52:03.810,410,-0.8293578,-0.8755352,0.87603974,0.0,0.0,0.0
2026-05-10 20:52:03.820,411,-0.8293578,-0.8755352,0.87603974,0.0,0.0,0.0
2026-05-10 20:52:03.830,412,-0.8293578,-0.8755352,0.87603974,0.0,0.0,0.0
2026-05-10 20:52:03.840,413,-0.94873095,-0.9787921,0.7479052,0.0,0.0,0.0
2026-05-10 20:52:03.850,414,-0.94873095,-0.9787921,0.7479052,0.0,0.0,0.0
2026-05-10 20:52:03.860,415,-0.94873095,-0.9787921,0.7479052,0.0,0.0,0.0
2026-05-10 20:52:03.870,416,-0.94873095,-0.9787921,0.7479052,0.0,0.0,0.0
2026-05-10 20:52:03.880,417,-0.94873095,-0.9787921,0.7479052,0.0,0.0,0.0
2026-05-10 20:52:03.890,418,-0.94873095,-0.9787921,0.7479052,0.0,0.0,0.0
2026-05-10 20:52:03.900,419,-1.0261009,-1.0577981,0.70662075,0.0,0.0,0.0
2026-05-10 20:52:03.910,420,-1.0261009,-1.0577981,0.70662075,0.0,0.0,0.0
2026-05-10 20:52:03.920,421,-1.0261009,-1.0577981,0.70662075,0.0,0.0,0.0
2026-05-10 20:52:03.930,422,-1.0963303,-1.0929663,0.6761468,0.0,0.0,0.0
2026-05-10 20:52:03.940,423,-1.0963303,-1.0929663,0.6761468,0.0,0.0,0.0
2026-05-10 20:52:03.950,424,-1.0963303,-1.0929663,0.6761468,0.0,0.0,0.0
2026-05-10 20:52:03.960,425,-1.0963303,-1.0929663,0.6761468,0.0,0.0,0.0
2026-05-10 20:52:03.970,426,-1.0963303,-1.0929663,0.6761468,0.0,0.0,0.0
2026-05-10 20:52:03.980,427,-1.2013303,-1.1251835,0.6738991,0.0,0.0,0.0
2026-05-10 20:52:03.990,428,-1.2013303,-1.1251835,0.6738991,0.0,0.0,0.0
2026-05-10 20:52:04.000,429,-1.2013303,-1.1251835,0.6738991,0.0,0.0,0.0
2026-05-10 20:52:04.010,430,-1.2013303,-1.1251835,0.6738991,0.0,0.0,0.0
2026-05-10 20:52:04.020,431,-1.2931039666666668,-1.1367329666666666,0.6849796333333332,0.0,0.0,0.0
2026-05-10 20:52:04.030,432,-1.4766513,-1.1598319,0.7071407,0.0,0.0,0.0
2026-05-10 20:52:04.040,433,-1.6940824999999997,-1.133945,0.7434251,0.0,0.0,0.0
2026-05-10 20:52:04.050,434,-1.6940824999999997,-1.133945,0.7434251,0.0,0.0,0.0
2026-05-10 20:52:04.060,435,-1.6940825,-1.133945,0.7434251,0.0,0.0,0.0
2026-05-10 20:52:04.070,436,-1.6940824999999997,-1.133945,0.7434251,0.0,0.0,0.0
2026-05-10 20:52:04.080,437,-1.6940824999999997,-1.133945,0.7434251,0.0,0.0,0.0
2026-05-10 20:52:04.090,438,-1.9137614,-0.844036735,0.86473245,0.0,0.0,0.0
2026-05-10 20:52:04.100,439,-1.9848164,-1.0932722,0.93527526,0.0,0.0,0.0
2026-05-10 20:52:04.110,440,-1.9848164,-1.0932722,0.93527526,0.0,0.0,0.0
2026-05-10 20:52:04.120,441,-1.9848164,-1.0932722,0.93527526,0.0,0.0,0.0
2026-05-10 20:52:04.130,442,-1.9848164,-1.0932722,0.93527526,0.0,0.0,0.0
2026-05-10 20:52:04.140,443,-1.9848164,-1.0932722,0.93527526,0.0,0.0,0.0
2026-05-10 20:52:04.150,444,-1.893002,-0.9608257333333333,0.8923190866666667,0.0,0.0,0.0
2026-05-10 20:52:04.160,445,-1.8470948,-0.8946025,0.870841,0.0,0.0,0.0
2026-05-10 20:52:04.170,446,-1.8470948,-0.8946025,0.870841,0.0,0.0,0.0
2026-05-10 20:52:04.180,447,-1.8470948,-0.8946025,0.870841,0.0,0.0,0.0
2026-05-10 20:52:04.190,448,-2.0433257,-0.8239067499999999,0.870841,0.0,0.0,0.0
2026-05-10 20:52:04.200,449,-2.2395566,-0.753211,0.870841,0.0,0.0,0.0
2026-05-10 20:52:04.210,450,-2.2395566,-0.753211,0.870841,0.0,0.0,0.0
2026-05-10 20:52:04.220,451,-2.2815442,-0.60091746,1.261162,0.0,0.0,0.0
2026-05-10 20:52:04.230,452,-2.4253823000000003,-0.3556575066666667,0.8062181199999999,0.0,0.0,0.0
2026-05-10 20:52:04.240,453,-2.6722784,-0.16819572,0.51651376,0.0,0.0,0.0
2026-05-10 20:52:04.250,454,-2.7967738333333334,-0.14128440666666667,0.5055402600000001,0.0,0.0,0.0
2026-05-10 20:52:04.260,455,-3.0457647,-0.08746178,0.48359325999999997,0.0,0.0,0.0
2026-05-10 20:52:04.270,456,-3.0457647,-0.08746178,0.48359325999999997,0.0,0.0,0.0
2026-05-10 20:52:04.280,457,-2.9752293333333335,0.14678898833333334,0.5415902133333333,0.0,0.0,0.0
2026-05-10 20:52:04.290,458,-2.901529,0.23363914,0.56941897,0.0,0.0,0.0
2026-05-10 20:52:04.300,459,-2.901529,0.23363914,0.56941897,0.0,0.0,0.0
2026-05-10 20:52:04.310,460,-2.901529,0.23363914,0.56941897,0.0,0.0,0.0
2026-05-10 20:52:04.320,461,-2.901529,0.23363914,0.56941897,0.0,0.0,0.0
2026-05-10 20:52:04.330,462,-2.901529,0.23363914,0.56941897,0.0,0.0,0.0
2026-05-10 20:52:04.340,463,-2.94123465,0.2160818,0.5665634525,0.0,0.0,0.0
2026-05-10 20:52:04.350,464,-3.0603516,0.16340978,0.5579969,0.0,0.0,0.0
2026-05-10 20:52:04.360,465,-2.926845,0.19860855333333335,0.5664576666666666,0.0,0.0,0.0
2026-05-10 20:52:04.370,466,-2.6598318,0.2690061,0.5833792,0.0,0.0,0.0
2026-05-10 20:52:04.380,467,-2.6598318,0.2690061,0.5833792,0.0,0.0,0.0
2026-05-10 20:52:04.390,468,-2.6598318,0.2690061,0.5833792,0.0,0.0,0.0
2026-05-10 20:52:04.400,469,-2.6598318,0.2690061,0.5833792,0.0,0.0,0.0
2026-05-10 20:52:04.410,470,-2.295214,0.28226298,0.6729816,0.0,0.0,0.0
2026-05-10 20:52:04.420,471,-2.295214,0.28226298,0.6729816,0.0,0.0,0.0
2026-05-10 20:52:04.430,472,-2.295214,0.28226298,0.6729816,0.0,0.0,0.0
2026-05-10 20:52:04.440,473,-2.295214,0.28226298,0.6729816,0.0,0.0,0.0
2026-05-10 20:52:04.450,474,-2.259892925,0.279942645,0.6897017999999999,0.0,0.0,0.0
2026-05-10 20:52:04.460,475,-2.1539297,0.27298164,0.7398624,0.0,0.0,0.0
2026-05-10 20:52:04.470,476,-2.1539297,0.27298164,0.7398624,0.0,0.0,0.0
2026-05-10 20:52:04.480,477,-2.1539297,0.27298164,0.7398624,0.0,0.0,0.0
2026-05-10 20:52:04.490,478,-2.1539297,0.27298164,0.7398624,0.0,0.0,0.0
2026-05-10 20:52:04.500,479,-2.1539297,0.27298164,0.7398624000000001,0.0,0.0,0.0
2026-05-10 20:52:04.510,480,-2.1539297,0.27298164,0.7398624000000001,0.0,0.0,0.0
2026-05-10 20:52:04.520,481,-2.1539297,0.27298164,0.7398624,0.0,0.0,0.0
2026-05-10 20:52:04.530,482,-2.1539297,0.27298164,0.7398624000000001,0.0,0.0,0.0
2026-05-10 20:52:04.540,483,-2.1539297,0.27298164,0.7398624,0.0,0.0,0.0
2026-05-10 20:52:04.550,484,-2.0904536333333334,0.2670693,0.7643884,0.0,0.0,0.0
2026-05-10 20:52:04.560,485,-2.0587156,0.26411313,0.7766514,0.0,0.0,0.0
2026-05-10 20:52:04.570,486,-2.0587156,0.26411313,0.7766514,0.0,0.0,0.0
2026-05-10 20:52:04.580,487,-2.0470234,-0.11930173666666667,0.7633384666666666,0.0,0.0,0.0
2026-05-10 20:52:04.590,488,-2.0162538000000003,-0.030986235,0.7716666999999999,0.0,0.0,0.0
2026-05-10 20:52:04.600,489,-1.9913303000000002,0.2490367,0.7866513999999999,0.0,0.0,0.0
2026-05-10 20:52:04.610,490,-1.9913303000000002,0.2490367,0.7866513999999999,0.0,0.0,0.0
2026-05-10 20:52:04.620,491,-1.9809327,0.20737512666666666,0.7427472,0.0,0.0,0.0
2026-05-10 20:52:04.630,492,-1.9757339,0.18654434,0.7207951,0.0,0.0,0.0
2026-05-10 20:52:04.640,493,-1.9757339,0.18654434,0.7207951,0.0,0.0,0.0
2026-05-10 20:52:04.650,494,-1.9757339,0.18654434,0.7207951,0.0,0.0,0.0
2026-05-10 20:52:04.660,495,-1.9806269,0.14522936,0.71332314,0.0,0.0,0.0
2026-05-10 20:52:04.670,496,-1.9830734,0.12457186999999999,0.70958716,0.0,0.0,0.0
2026-05-10 20:52:04.680,497,-2.328945,-0.69908255,0.7642202,0.0,0.0,0.0
2026-05-10 20:52:04.690,498,-2.328945,-0.69908255,0.7642202,0.0,0.0,0.0
2026-05-10 20:52:04.700,499,-2.328945,-0.69908255,0.7642202,0.0,0.0,0.0
2026-05-10 20:52:04.710,500,-2.328945,-0.69908255,0.7642202,0.0,0.0,0.0
2026-05-10 20:52:04.720,501,-2.328945,-0.69908255,0.7642202,0.0,0.0,0.0
2026-05-10 20:52:04.730,502,-2.328945,-0.69908255,0.7642202,0.0,0.0,0.0
2026-05-10 20:52:04.740,503,-2.328945,-0.69908255,0.7642202,0.0,0.0,0.0
2026-05-10 20:52:04.750,504,-2.328945,-0.69908255,0.7642202,0.0,0.0,0.0
2026-05-10 20:52:04.760,505,-2.328945,-0.69908255,0.7642202,0.0,0.0,0.0
2026-05-10 20:52:04.770,506,-2.328945,-0.69908255,0.7642202,0.0,0.0,0.0
2026-05-10 20:52:04.780,507,-2.328945,-0.69908255,0.7642202,0.0,0.0,0.0
2026-05-10 20:52:04.790,508,-2.1226249999999998,-0.17892966066666668,0.7189602333333335,0.0,0.0,0.0
2026-05-10 20:52:04.800,509,-2.019465,0.081146784,0.69633025,0.0,0.0,0.0
2026-05-10 20:52:04.810,510,-2.019465,0.081146784,0.69633025,0.0,0.0,0.0
2026-05-10 20:52:04.820,511,-2.019465,0.081146784,0.69633025,0.0,0.0,0.0
2026-05-10 20:52:04.830,512,-2.019465,0.081146784,0.69633025,0.0,0.0,0.0
2026-05-10 20:52:04.840,513,-2.051004133333333,-0.067008152,0.7049642833333333,0.0,0.0,0.0
2026-05-10 20:52:04.850,514,-2.0667737,-0.14108562,0.7092813000000001,0.0,0.0,0.0
2026-05-10 20:52:04.860,515,-2.0667737,-0.14108562,0.7092813000000001,0.0,0.0,0.0
2026-05-10 20:52:04.870,516,-2.0667737,-0.14108562,0.7092813000000001,0.0,0.0,0.0
2026-05-10 20:52:04.880,517,-2.0667737,-0.14108562,0.7092813000000001,0.0,0.0,0.0
2026-05-10 20:52:04.890,518,-2.038945,-0.4029511,0.76371557,0.0,0.0,0.0
2026-05-10 20:52:04.900,519,-2.191942,-0.5035627,0.75616205,0.0,0.0,0.0
2026-05-10 20:52:04.910,520,-2.191942,-0.5035627,0.75616205,0.0,0.0,0.0
2026-05-10 20:52:04.920,521,-2.191942,-0.5035627,0.75616205,0.0,0.0,0.0
2026-05-10 20:52:04.930,522,-2.191942,-0.5035627,0.75616205,0.0,0.0,0.0
2026-05-10 20:52:04.940,523,-2.191942,-0.5035627,0.75616205,0.0,0.0,0.0
2026-05-10 20:52:04.950,524,-2.191942,-0.5035627,0.75616205,0.0,0.0,0.0
2026-05-10 20:52:04.960,525,-2.191942,-0.5035627,0.75616205,0.0,0.0,0.0
2026-05-10 20:52:04.970,526,-2.191942,-0.5035627,0.75616205,0.0,0.0,0.0
2026-05-10 20:52:04.980,527,-2.2827675,-0.5900153,0.753211,0.0,0.0,0.0
2026-05-10 20:52:04.990,528,-2.2827675,-0.5900153,0.753211,0.0,0.0,0.0
2026-05-10 20:52:05.000,529,-2.2827675,-0.5900153,0.753211,0.0,0.0,0.0
2026-05-10 20:52:05.010,530,-2.2827675,-0.5900153,0.753211,0.0,0.0,0.0
2026-05-10 20:52:05.020,531,-2.2827675,-0.5900153,0.753211,0.0,0.0,0.0
2026-05-10 20:52:05.030,532,-2.2827675,-0.5900153,0.753211,0.0,0.0,0.0
2026-05-10 20:52:05.040,533,-2.2827675,-0.5900153,0.753211,0.0,0.0,0.0
2026-05-10 20:52:05.050,534,-2.2827675,-0.5900153,0.753211,0.0,0.0,0.0
2026-05-10 20:52:05.060,535,-2.2827675,-0.5900153,0.753211,0.0,0.0,0.0
2026-05-10 20:52:05.070,536,-2.2827675,-0.5900153,0.753211,0.0,0.0,0.0
2026-05-10 20:52:05.080,537,-2.2827675,-0.5900153,0.753211,0.0,0.0,0.0
2026-05-10 20:52:05.090,538,-2.1295567,-1.0570796,0.6705352000000001,0.0,0.0,0.0
2026-05-10 20:52:05.100,539,-2.162584166666667,-0.9896330666666667,0.7162385533333334,0.0,0.0,0.0
2026-05-10 20:52:05.110,540,-2.2286391,-0.85474,0.80764526,0.0,0.0,0.0
2026-05-10 20:52:05.120,541,-2.2286391,-0.85474,0.80764526,0.0,0.0,0.0
2026-05-10 20:52:05.130,542,-2.1878644,-0.8765545000000001,0.8067635066666666,0.0,0.0,0.0
2026-05-10 20:52:05.140,543,-2.106315,-0.9201834999999999,0.805,0.0,0.0,0.0
2026-05-10 20:52:05.150,544,-2.106315,-0.9201835,0.805,0.0,0.0,0.0
2026-05-10 20:52:05.160,545,-2.106315,-0.9201834999999999,0.805,0.0,0.0,0.0
2026-05-10 20:52:05.170,546,-2.106315,-0.9201835,0.805,0.0,0.0,0.0
2026-05-10 20:52:05.180,547,-2.106315,-0.9201834999999999,0.805,0.0,0.0,0.0
2026-05-10 20:52:05.190,548,-2.106315,-0.9201834999999999,0.805,0.0,0.0,0.0
2026-05-10 20:52:05.200,549,-2.106315,-0.9201835,0.805,0.0,0.0,0.0
2026-05-10 20:52:05.210,550,-2.0685983333333335,-0.9445769266666666,0.7626554666666667,0.0,0.0,0.0
2026-05-10 20:52:05.220,551,-2.04974,-0.9567736400000001,0.7414831999999999,0.0,0.0,0.0
2026-05-10 20:52:05.230,552,-2.0526530000000003,-1.00180811,0.7129740125,0.0,0.0,0.0
2026-05-10 20:52:05.240,553,-2.053624,-1.0168196,0.7034709500000002,0.0,0.0,0.0
2026-05-10 20:52:05.250,554,-2.053624,-1.0168196,0.70347095,0.0,0.0,0.0
2026-05-10 20:52:05.260,555,-2.053624,-1.0168196,0.7034709500000002,0.0,0.0,0.0
2026-05-10 20:52:05.270,556,-2.053624,-1.0168196,0.7034709500000002,0.0,0.0,0.0
2026-05-10 20:52:05.280,557,-2.053624,-1.0168196,0.70347095,0.0,0.0,0.0
2026-05-10 20:52:05.290,558,-2.053624,-1.0168196,0.7034709500000002,0.0,0.0,0.0
2026-05-10 20:52:05.300,559,-2.1436238,-1.0663608,0.6690061000000002,0.0,0.0,0.0
2026-05-10 20:52:05.310,560,-2.1436238,-1.0663608,0.6690061,0.0,0.0,0.0
2026-05-10 20:52:05.320,561,-2.1436238,-1.0663608,0.6690061000000002,0.0,0.0,0.0
2026-05-10 20:52:05.330,562,-2.1436238,-1.0663608,0.6690061000000002,0.0,0.0,0.0
2026-05-10 20:52:05.340,563,-2.1436238,-1.0663608,0.6690061000000002,0.0,0.0,0.0
2026-05-10 20:52:05.350,564,-2.1436238,-1.0663608,0.6690061,0.0,0.0,0.0
2026-05-10 20:52:05.360,565,-2.1436238,-1.0663608,0.6690061000000002,0.0,0.0,0.0
2026-05-10 20:52:05.370,566,-2.1436238,-1.0663608,0.6690061000000002,0.0,0.0,0.0
2026-05-10 20:52:05.380,567,-2.1436238,-1.0663608,0.6690061000000002,0.0,0.0,0.0
2026-05-10 20:52:05.390,568,-2.1436238,-1.0663608,0.6690061,0.0,0.0,0.0
2026-05-10 20:52:05.400,569,-2.1431498666666666,-1.0691488,0.6682925333333335,0.0,0.0,0.0
2026-05-10 20:52:05.410,570,-2.142202,-1.0747248,0.6668654000000002,0.0,0.0,0.0
2026-05-10 20:52:05.420,571,-2.142202,-1.0747248,0.6668654000000002,0.0,0.0,0.0
2026-05-10 20:52:05.430,572,-2.142202,-1.0747248,0.6668654000000002,0.0,0.0,0.0
2026-05-10 20:52:05.440,573,-2.142202,-1.0747248,0.6668654,0.0,0.0,0.0
2026-05-10 20:52:05.450,574,-2.0272171,-1.083685,0.6660551,0.0,0.0,0.0
2026-05-10 20:52:05.460,575,-2.0272171,-1.083685,0.6660551,0.0,0.0,0.0
2026-05-10 20:52:05.470,576,-2.0272171,-1.083685,0.6660551,0.0,0.0,0.0
2026-05-10 20:52:05.480,577,-2.0272171,-1.083685,0.6660551,0.0,0.0,0.0
2026-05-10 20:52:05.490,578,-2.0272171,-1.083685,0.6660551,0.0,0.0,0.0
2026-05-10 20:52:05.500,579,-2.0272171,-1.083685,0.6660551,0.0,0.0,0.0
2026-05-10 20:52:05.510,580,-2.0272171,-1.083685,0.6660551,0.0,0.0,0.0
2026-05-10 20:52:05.520,581,-2.0272171,-1.083685,0.6660551,0.0,0.0,0.0
2026-05-10 20:52:05.530,582,-2.0272171,-1.083685,0.6660551,0.0,0.0,0.0
2026-05-10 20:52:05.540,583,-2.0272171,-1.083685,0.6660551,0.0,0.0,0.0
2026-05-10 20:52:05.550,584,-1.9792546,-1.0824120750000001,0.686391475,0.0,0.0,0.0
2026-05-10 20:52:05.560,585,-1.8353671,-1.0785933,0.7474006000000001,0.0,0.0,0.0
2026-05-10 20:52:05.570,586,-1.8353671,-1.0785933,0.7474006,0.0,0.0,0.0
2026-05-10 20:52:05.580,587,-1.7690469,-1.0714577,0.7913047733333333,0.0,0.0,0.0
2026-05-10 20:52:05.590,588,-1.7358868,-1.0678899,0.81325686,0.0,0.0,0.0
2026-05-10 20:52:05.600,589,-1.7358868,-1.0678899,0.81325686,0.0,0.0,0.0
2026-05-10 20:52:05.610,590,-1.7358868,-1.0678899,0.81325686,0.0,0.0,0.0
2026-05-10 20:52:05.620,591,-1.7358868,-1.0678899,0.81325686,0.0,0.0,0.0
2026-05-10 20:52:05.630,592,-1.70474385,-1.067633775,0.83127292,0.0,0.0,0.0
2026-05-10 20:52:05.640,593,-1.611315,-1.0668654,0.8853211,0.0,0.0,0.0
2026-05-10 20:52:05.650,594,-1.611315,-1.0668654,0.8853211,0.0,0.0,0.0
2026-05-10 20:52:05.660,595,-1.5629969333333333,-1.0426044566666668,0.88572885,0.0,0.0,0.0
2026-05-10 20:52:05.670,596,-1.4663607999999997,-0.9940825700000001,0.88654435,0.0,0.0,0.0
2026-05-10 20:52:05.680,597,-1.427369975,-0.9678096525,0.8780581125,0.0,0.0,0.0
2026-05-10 20:52:05.690,598,-1.3103975,-0.8889909,0.8525994,0.0,0.0,0.0
2026-05-10 20:52:05.700,599,-1.3103975,-0.8889909,0.8525994,0.0,0.0,0.0
2026-05-10 20:52:05.710,600,-1.3103975,-0.8889909,0.8525994,0.0,0.0,0.0
2026-05-10 20:52:05.720,601,-1.3103975,-0.8889909,0.8525994,0.0,0.0,0.0
2026-05-10 20:52:05.730,602,-1.3004129,-0.895,0.85545874,0.0,0.0,0.0
2026-05-10 20:52:05.740,603,-1.3004129,-0.895,0.85545874,0.0,0.0,0.0
2026-05-10 20:52:05.750,604,-1.3004129,-0.895,0.85545874,0.0,0.0,0.0
2026-05-10 20:52:05.760,605,-1.3004129,-0.895,0.85545874,0.0,0.0,0.0
2026-05-10 20:52:05.770,606,-1.2881448,-0.8921814499999999,0.8750611766666667,0.0,0.0,0.0
2026-05-10 20:52:05.780,607,-1.2636086,-0.88654435,0.91426605,0.0,0.0,0.0
2026-05-10 20:52:05.790,608,-1.2636086,-0.88654435,0.91426605,0.0,0.0,0.0
2026-05-10 20:52:05.800,609,-1.2494393666666666,-0.8842660666666666,0.9464118333333333,0.0,0.0,0.0
2026-05-10 20:52:05.810,610,-1.2211009,-0.8797095,1.0107034,0.0,0.0,0.0
2026-05-10 20:52:05.820,611,-1.2211009,-0.8797095,1.0107034,0.0,0.0,0.0
2026-05-10 20:52:05.830,612,-1.1990468666666667,-0.8811722999999999,1.0149490666666665,0.0,0.0,0.0
2026-05-10 20:52:05.840,613,-0.9993832666666668,-0.8921814666666666,0.9759378,0.0,0.0,0.0
2026-05-10 20:52:05.850,614,-0.9216055,-0.89622325,0.9521865,0.0,0.0,0.0
2026-05-10 20:52:05.860,615,-0.9216055,-0.8962232499999999,0.9521865000000002,0.0,0.0,0.0
2026-05-10 20:52:05.870,616,-0.9216055,-0.8962232499999999,0.9521865000000002,0.0,0.0,0.0
2026-05-10 20:52:05.880,617,-0.9216055,-0.8962232499999999,0.9521865000000002,0.0,0.0,0.0
2026-05-10 20:52:05.890,618,-0.9216055,-0.89622325,0.9521865,0.0,0.0,0.0
2026-05-10 20:52:05.900,619,-0.9216055,-0.8962232499999999,0.9521865000000002,0.0,0.0,0.0
2026-05-10 20:52:05.910,620,-0.9216055,-0.8962232499999999,0.9521865000000002,0.0,0.0,0.0
2026-05-10 20:52:05.920,621,-0.9216055,-0.8962232499999999,0.9521865000000002,0.0,0.0,0.0
2026-05-10 20:52:05.930,622,-0.8759735000000001,-0.8947655333333334,0.9045820333333333,0.0,0.0,0.0
2026-05-10 20:52:05.940,623,-0.73088687,-0.87503055,0.74347095,0.0,0.0,0.0
2026-05-10 20:52:05.950,624,-0.67706424,-0.858211,0.6775688,0.0,0.0,0.0
2026-05-10 20:52:05.960,625,-0.67706424,-0.858211,0.6775688,0.0,0.0,0.0
2026-05-10 20:52:05.970,626,-0.67706424,-0.858211,0.6775688,0.0,0.0,0.0
2026-05-10 20:52:05.980,627,-0.67706424,-0.858211,0.6775688,0.0,0.0,0.0
2026-05-10 20:52:05.990,628,-0.67706424,-0.858211,0.6775688,0.0,0.0,0.0
2026-05-10 20:52:06.000,629,-0.67706424,-0.858211,0.6775688,0.0,0.0,0.0
2026-05-10 20:52:06.010,630,-0.5963303,-0.84525996,0.5623853,0.0,0.0,0.0
2026-05-10 20:52:06.020,631,-0.5963303,-0.84525996,0.5623853,0.0,0.0,0.0
2026-05-10 20:52:06.030,632,-0.5963303,-0.84525996,0.5623853,0.0,0.0,0.0
2026-05-10 20:52:06.040,633,-0.5963303,-0.84525996,0.5623853,0.0,0.0,0.0
2026-05-10 20:52:06.050,634,-0.5963303,-0.84525996,0.5623853,0.0,0.0,0.0
2026-05-10 20:52:06.060,635,-0.5963303,-0.84525996,0.5623853,0.0,0.0,0.0
2026-05-10 20:52:06.070,636,-0.5963303,-0.84525996,0.5623853,0.0,0.0,0.0
2026-05-10 20:52:06.080,637,-0.5963303,-0.84525996,0.5623853,0.0,0.0,0.0
2026-05-10 20:52:06.090,638,-0.5963303,-0.84525996,0.5623853,0.0,0.0,0.0
2026-05-10 20:52:06.100,639,-0.5963303,-0.84525996,0.5623853,0.0,0.0,0.0
2026-05-10 20:52:06.110,640,-0.52110094,-0.8877676,0.55087155,0.0,0.0,0.0
2026-05-10 20:52:06.120,641,-0.52110094,-0.8877676,0.55087155,0.0,0.0,0.0
2026-05-10 20:52:06.130,642,-0.52110094,-0.8877676,0.55087155,0.0,0.0,0.0
2026-05-10 20:52:06.140,643,-0.52110094,-0.8877676,0.55087155,0.0,0.0,0.0
2026-05-10 20:52:06.150,644,-0.52110094,-0.8877676,0.55087155,0.0,0.0,0.0
2026-05-10 20:52:06.160,645,-0.52110094,-0.8877676,0.55087155,0.0,0.0,0.0
2026-05-10 20:52:06.170,646,-0.15895515333333332,-0.8639144,0.41226809,0.0,0.0,0.0
2026-05-10 20:52:06.180,647,0.35229358,-0.8074464999999998,0.17533639,0.0,0.0,0.0
2026-05-10 20:52:06.190,648,0.27883282666666664,-0.8302089666666665,0.21753822666666667,0.0,0.0,0.0
2026-05-10 20:52:06.200,649,0.13191132,-0.8757338999999998,0.3019419,0.0,0.0,0.0
2026-05-10 20:52:06.210,650,0.13191132,-0.8757338999999998,0.3019419,0.0,0.0,0.0
2026-05-10 20:52:06.220,651,0.13191132,-0.8757338999999998,0.3019419,0.0,0.0,0.0
2026-05-10 20:52:06.230,652,0.13191132,-0.8757339,0.3019419,0.0,0.0,0.0
2026-05-10 20:52:06.240,653,0.13191132,-0.8757338999999998,0.3019419,0.0,0.0,0.0
2026-05-10 20:52:06.250,654,0.13191132,-0.8757338999999998,0.3019419,0.0,0.0,0.0
2026-05-10 20:52:06.260,655,0.13191132,-0.8757338999999998,0.3019419,0.0,0.0,0.0
2026-05-10 20:52:06.270,656,0.52507645,-0.71885324,0.08695719,0.0,0.0,0.0
2026-05-10 20:52:06.280,657,0.52507645,-0.71885324,0.08695719,0.0,0.0,0.0
2026-05-10 20:52:06.290,658,0.52507645,-0.71885324,0.08695719,0.0,0.0,0.0
2026-05-10 20:52:06.300,659,0.5701325166666666,-0.6495362133333332,0.03863914533333333,0.0,0.0,0.0
2026-05-10 20:52:06.310,660,0.59266055,-0.6148777,0.014480123,0.0,0.0,0.0
2026-05-10 20:52:06.320,661,0.59266055,-0.6148777,0.014480123,0.0,0.0,0.0
2026-05-10 20:52:06.330,662,0.59266055,-0.6148777,0.014480123,0.0,0.0,0.0
2026-05-10 20:52:06.340,663,0.59266055,-0.6148777,0.014480123,0.0,0.0,0.0
2026-05-10 20:52:06.350,664,0.59266055,-0.6148777,0.014480123,0.0,0.0,0.0
2026-05-10 20:52:06.360,665,0.59266055,-0.6148777,0.014480123,0.0,0.0,0.0
2026-05-10 20:52:06.370,666,0.7111161999999999,-0.5606575,-0.030076453,0.0,0.0,0.0
2026-05-10 20:52:06.380,667,0.7111162,-0.5606575,-0.030076453,0.0,0.0,0.0
2026-05-10 20:52:06.390,668,0.7111162,-0.5606575,-0.030076453,0.0,0.0,0.0
2026-05-10 20:52:06.400,669,0.7111161999999999,-0.5606575,-0.030076453,0.0,0.0,0.0
2026-05-10 20:52:06.410,670,0.7111161999999999,-0.5606575,-0.030076453,0.0,0.0,0.0
2026-05-10 20:52:06.420,671,0.7111161999999999,-0.5606575,-0.030076453,0.0,0.0,0.0
2026-05-10 20:52:06.430,672,0.8048267,-0.5505963,-0.026539247000000002,0.0,0.0,0.0
2026-05-10 20:52:06.440,673,0.85168195,-0.5455657,-0.024770643999999998,0.0,0.0,0.0
2026-05-10 20:52:06.450,674,0.85168195,-0.5455657,-0.024770644,0.0,0.0,0.0
2026-05-10 20:52:06.460,675,0.85168195,-0.5455657,-0.024770643999999998,0.0,0.0,0.0
2026-05-10 20:52:06.470,676,0.85168195,-0.5455657,-0.024770644,0.0,0.0,0.0
2026-05-10 20:52:06.480,677,0.85168195,-0.5455657,-0.024770644,0.0,0.0,0.0
2026-05-10 20:52:06.490,678,0.9114831666666667,-0.5349999666666667,-0.0033995933333333347,0.0,0.0,0.0
2026-05-10 20:52:06.500,679,1.0310856,-0.5138685,0.039342508,0.0,0.0,0.0
2026-05-10 20:52:06.510,680,1.0310856,-0.5138685,0.039342508,0.0,0.0,0.0
2026-05-10 20:52:06.520,681,1.0310856,-0.5138685,0.039342508,0.0,0.0,0.0
2026-05-10 20:52:06.530,682,1.0310856,-0.5138685,0.039342508,0.0,0.0,0.0
2026-05-10 20:52:06.540,683,1.4235475,-0.44403672,0.14750765,0.0,0.0,0.0
2026-05-10 20:52:06.550,684,1.4235475,-0.44403672,0.14750765,0.0,0.0,0.0
2026-05-10 20:52:06.560,685,1.4235475,-0.44403672,0.14750765,0.0,0.0,0.0
2026-05-10 20:52:06.570,686,1.4235475,-0.44403672,0.14750765,0.0,0.0,0.0
2026-05-10 20:52:06.580,687,1.4235475,-0.44403672,0.14750765,0.0,0.0,0.0
2026-05-10 20:52:06.590,688,1.4235475,-0.44403672,0.14750765,0.0,0.0,0.0
2026-05-10 20:52:06.600,689,1.4235475,-0.44403672,0.14750765,0.0,0.0,0.0
2026-05-10 20:52:06.610,690,1.4235475,-0.44403672,0.14750765,0.0,0.0,0.0
2026-05-10 20:52:06.620,691,1.4235475,-0.44403672,0.14750765,0.0,0.0,0.0
2026-05-10 20:52:06.630,692,1.4235475,-0.44403672,0.14750765,0.0,0.0,0.0
2026-05-10 20:52:06.640,693,1.4235475,-0.44403672,0.14750765,0.0,0.0,0.0
2026-05-10 20:52:06.650,694,1.4235475,-0.44403672,0.14750765,0.0,0.0,0.0
2026-05-10 20:52:06.660,695,1.5294291666666666,-0.40122324,0.14960754333333334,0.0,0.0,0.0
2026-05-10 20:52:06.670,696,1.58237,-0.3798165,0.15065749,0.0,0.0,0.0
2026-05-10 20:52:06.680,697,1.58237,-0.3798165,0.15065749,0.0,0.0,0.0
2026-05-10 20:52:06.690,698,1.58237,-0.3798165,0.15065749,0.0,0.0,0.0
2026-05-10 20:52:06.700,699,1.58237,-0.3798165,0.15065749,0.0,0.0,0.0
2026-05-10 20:52:06.710,700,1.58237,-0.3798165,0.15065749,0.0,0.0,0.0
2026-05-10 20:52:06.720,701,1.58237,-0.3798165,0.15065749,0.0,0.0,0.0
2026-05-10 20:52:06.730,702,1.6624210000000001,-0.35201834666666665,0.14611111666666668,0.0,0.0,0.0
2026-05-10 20:52:06.740,703,1.7849439666666667,-0.27756881,0.11617227666666667,0.0,0.0,0.0
2026-05-10 20:52:06.750,704,1.8261927,-0.24729358,0.10233945,0.0,0.0,0.0
2026-05-10 20:52:06.760,705,1.8261927,-0.24729358,0.10233945,0.0,0.0,0.0
2026-05-10 20:52:06.770,706,1.8261927,-0.24729358,0.10233945,0.0,0.0,0.0
2026-05-10 20:52:06.780,707,1.8046177666666665,-0.24525484666666666,0.10549948966666667,0.0,0.0,0.0
2026-05-10 20:52:06.790,708,1.77864305,-0.258100165,0.11967125549999999,0.0,0.0,0.0
2026-05-10 20:52:06.800,709,1.7320031,-0.33730888,0.16432722,0.0,0.0,0.0
2026-05-10 20:52:06.810,710,1.7320031,-0.33730888,0.16432722,0.0,0.0,0.0
2026-05-10 20:52:06.820,711,1.7320031,-0.33730888,0.16432722,0.0,0.0,0.0
2026-05-10 20:52:06.830,712,1.7320031,-0.33730888,0.16432722,0.0,0.0,0.0
2026-05-10 20:52:06.840,713,1.7320031,-0.33730888,0.16432722,0.0,0.0,0.0
2026-05-10 20:52:06.850,714,1.7320031,-0.33730888,0.16432722,0.0,0.0,0.0
2026-05-10 20:52:06.860,715,1.7320031,-0.33730888,0.16432722,0.0,0.0,0.0
2026-05-10 20:52:06.870,716,1.7320031,-0.33730888,0.16432722,0.0,0.0,0.0
2026-05-10 20:52:06.880,717,1.7320031,-0.33730888,0.16432722,0.0,0.0,0.0
2026-05-10 20:52:06.890,718,1.5843501500000001,-0.24143731499999999,0.16773701,0.0,0.0,0.0
2026-05-10 20:52:06.900,719,1.4366972,-0.14556575,0.17114679999999996,0.0,0.0,0.0
2026-05-10 20:52:06.910,720,1.4366972,-0.14556575,0.17114679999999996,0.0,0.0,0.0
2026-05-10 20:52:06.920,721,1.4366972,-0.14556575,0.17114679999999996,0.0,0.0,0.0
2026-05-10 20:52:06.930,722,1.4366972,-0.14556575,0.17114679999999996,0.0,0.0,0.0
2026-05-10 20:52:06.940,723,1.4366972,-0.14556575,0.17114679999999996,0.0,0.0,0.0
2026-05-10 20:52:06.950,724,1.2280275,0.025688072999999995,0.18134557000000004,0.0,0.0,0.0
2026-05-10 20:52:06.960,725,1.2280275,0.025688072999999995,0.18134557000000004,0.0,0.0,0.0
2026-05-10 20:52:06.970,726,1.2280275,0.025688072999999995,0.18134557000000004,0.0,0.0,0.0
2026-05-10 20:52:06.980,727,1.2280275,0.025688072999999995,0.18134557000000004,0.0,0.0,0.0
2026-05-10 20:52:06.990,728,1.2280275,0.025688073,0.18134557,0.0,0.0,0.0
2026-05-10 20:52:07.000,729,1.2280275,0.025688072999999995,0.18134557000000004,0.0,0.0,0.0
2026-05-10 20:52:07.010,730,1.1909225333333333,0.03816004,0.1710142766666667,0.0,0.0,0.0
2026-05-10 20:52:07.020,731,1.1167126,0.063103974,0.15035169,0.0,0.0,0.0
2026-05-10 20:52:07.030,732,1.1167126,0.063103974,0.15035169,0.0,0.0,0.0
2026-05-10 20:52:07.040,733,1.1167126,0.063103974,0.15035169,0.0,0.0,0.0
2026-05-10 20:52:07.050,734,1.0020030666666668,0.05072884733333333,0.13166667,0.0,0.0,0.0
2026-05-10 20:52:07.060,735,0.9446483,0.044541283999999993,0.12232416,0.0,0.0,0.0
2026-05-10 20:52:07.070,736,0.9446483,0.044541283999999993,0.12232416,0.0,0.0,0.0
2026-05-10 20:52:07.080,737,0.9446483,0.044541283999999993,0.12232416,0.0,0.0,0.0
2026-05-10 20:52:07.090,738,0.9446483,0.044541283999999993,0.12232416,0.0,0.0,0.0
2026-05-10 20:52:07.100,739,0.8860652333333333,0.019332313733333332,0.18885832000000002,0.0,0.0,0.0
2026-05-10 20:52:07.110,740,0.8567737,0.0067278286,0.2221254,0.0,0.0,0.0
2026-05-10 20:52:07.120,741,0.8567737000000001,0.0067278286,0.2221254,0.0,0.0,0.0
2026-05-10 20:52:07.130,742,0.8316309999999999,-0.004892966933333334,0.2655810533333333,0.0,0.0,0.0
2026-05-10 20:52:07.140,743,0.7813456,-0.028134558,0.35249236,0.0,0.0,0.0
2026-05-10 20:52:07.150,744,0.7813456,-0.028134558,0.35249236,0.0,0.0,0.0
2026-05-10 20:52:07.160,745,0.5858257,-0.09836391,0.5562691,0.0,0.0,0.0
2026-05-10 20:52:07.170,746,0.5858257,-0.09836391,0.5562691,0.0,0.0,0.0
2026-05-10 20:52:07.180,747,0.5858257,-0.09836391,0.5562691,0.0,0.0,0.0
2026-05-10 20:52:07.190,748,0.5858257,-0.09836391,0.5562691,0.0,0.0,0.0
2026-05-10 20:52:07.200,749,0.5858257,-0.09836391,0.5562691,0.0,0.0,0.0
2026-05-10 20:52:07.210,750,0.5858257,-0.09836391,0.5562691,0.0,0.0,0.0
2026-05-10 20:52:07.220,751,0.43506116,-0.118455656,0.60845566,0.0,0.0,0.0
2026-05-10 20:52:07.230,752,0.43506116,-0.118455656,0.60845566,0.0,0.0,0.0
2026-05-10 20:52:07.240,753,0.43506116,-0.118455656,0.60845566,0.0,0.0,0.0
2026-05-10 20:52:07.250,754,0.31865445,-0.15646788,0.6082569,0.0,0.0,0.0
2026-05-10 20:52:07.260,755,0.31865445,-0.15646788,0.6082569,0.0,0.0,0.0
2026-05-10 20:52:07.270,756,0.31865445,-0.15646788,0.6082569,0.0,0.0,0.0
2026-05-10 20:52:07.280,757,0.31865445,-0.15646788,0.6082569,0.0,0.0,0.0
2026-05-10 20:52:07.290,758,0.31865445,-0.15646788,0.6082569,0.0,0.0,0.0
2026-05-10 20:52:07.300,759,0.31865445,-0.15646788,0.6082569,0.0,0.0,0.0
2026-05-10 20:52:07.310,760,0.31865445,-0.15646788,0.6082569,0.0,0.0,0.0
2026-05-10 20:52:07.320,761,0.20366973,-0.16870031,0.5196789,0.0,0.0,0.0
2026-05-10 20:52:07.330,762,0.16071865666666665,-0.17016309999999998,0.47982162000000006,0.0,0.0,0.0
2026-05-10 20:52:07.340,763,0.07481651,-0.17308868,0.40010706,0.0,0.0,0.0
2026-05-10 20:52:07.350,764,-0.10856269499999999,-0.16600152499999998,0.35739297999999997,0.0,0.0,0.0
2026-05-10 20:52:07.360,765,-0.2919419,-0.15891437,0.3146789,0.0,0.0,0.0
2026-05-10 20:52:07.370,766,-0.2919419,-0.15891437,0.3146789,0.0,0.0,0.0
2026-05-10 20:52:07.380,767,-0.2919419,-0.15891437,0.3146789,0.0,0.0,0.0
2026-05-10 20:52:07.390,768,-0.2919419,-0.15891437,0.3146789,0.0,0.0,0.0
2026-05-10 20:52:07.400,769,-0.2919419,-0.15891437,0.3146789,0.0,0.0,0.0
2026-05-10 20:52:07.410,770,-0.2919419,-0.15891437,0.3146789,0.0,0.0,0.0
2026-05-10 20:52:07.420,771,-0.2919419,-0.15891437,0.3146789,0.0,0.0,0.0
2026-05-10 20:52:07.430,772,-0.2919419,-0.15891437,0.3146789,0.0,0.0,0.0
2026-05-10 20:52:07.440,773,-0.44567278,-0.23333331999999998,0.2994954,0.0,0.0,0.0
2026-05-10 20:52:07.450,774,-0.463761465,-0.26997705,0.28058103,0.0,0.0,0.0
2026-05-10 20:52:07.460,775,-0.4818501499999999,-0.30662078,0.26166666,0.0,0.0,0.0
2026-05-10 20:52:07.470,776,-0.48185015,-0.30662078,0.26166666,0.0,0.0,0.0
2026-05-10 20:52:07.480,777,-0.4818501499999999,-0.30662078,0.26166666,0.0,0.0,0.0
2026-05-10 20:52:07.490,778,-0.4818501499999999,-0.30662078,0.26166666,0.0,0.0,0.0
2026-05-10 20:52:07.500,779,-0.4818501499999999,-0.30662078,0.26166666,0.0,0.0,0.0
2026-05-10 20:52:07.510,780,-0.48185015,-0.30662078,0.26166666,0.0,0.0,0.0
2026-05-10 20:52:07.520,781,-0.4818501499999999,-0.30662078,0.26166666,0.0,0.0,0.0
2026-05-10 20:52:07.530,782,-0.44780579499999995,-0.401934255,0.212637605,0.0,0.0,0.0
2026-05-10 20:52:07.540,783,-0.41376144,-0.49724773,0.16360855,0.0,0.0,0.0
2026-05-10 20:52:07.550,784,-0.41376144,-0.49724773,0.16360855,0.0,0.0,0.0
2026-05-10 20:52:07.560,785,-0.41376144,-0.49724773,0.16360855,0.0,0.0,0.0
2026-05-10 20:52:07.570,786,-0.39079511333333333,-0.5440672766666667,0.09232415199999999,0.0,0.0,0.0
2026-05-10 20:52:07.580,787,-0.37931195,-0.56747705,0.056681953,0.0,0.0,0.0
2026-05-10 20:52:07.590,788,-0.37931195,-0.56747705,0.056681953,0.0,0.0,0.0
2026-05-10 20:52:07.600,789,-0.37931195,-0.56747705,0.056681953,0.0,0.0,0.0
2026-05-10 20:52:07.610,790,-0.37931195,-0.56747705,0.056681953,0.0,0.0,0.0
2026-05-10 20:52:07.620,791,-0.37931195,-0.56747705,0.056681953,0.0,0.0,0.0
2026-05-10 20:52:07.630,792,-0.37931195,-0.56747705,0.056681953,0.0,0.0,0.0
2026-05-10 20:52:07.640,793,-0.37931195,-0.56747705,0.056681953,0.0,0.0,0.0
2026-05-10 20:52:07.650,794,-0.37931195,-0.56747705,0.056681953,0.0,0.0,0.0
2026-05-10 20:52:07.660,795,-0.37931195,-0.56747705,0.056681953,0.0,0.0,0.0
2026-05-10 20:52:07.670,796,-0.37931195,-0.56747705,0.056681953,0.0,0.0,0.0
2026-05-10 20:52:07.680,797,-0.37931195,-0.56747705,0.056681953,0.0,0.0,0.0
2026-05-10 20:52:07.690,798,-0.37931195,-0.56747705,0.056681953,0.0,0.0,0.0
2026-05-10 20:52:07.700,799,-0.5572528033333334,-0.6020336333333334,-0.08610091666666668,0.0,0.0,0.0
2026-05-10 20:52:07.710,800,-0.67197245,-0.6631957,-0.08766055,0.0,0.0,0.0
2026-05-10 20:52:07.720,801,-0.67197245,-0.6631957,-0.08766055,0.0,0.0,0.0
2026-05-10 20:52:07.730,802,-0.67197245,-0.6631957,-0.08766055,0.0,0.0,0.0
2026-05-10 20:52:07.740,803,-0.67197245,-0.6631957,-0.08766055,0.0,0.0,0.0
2026-05-10 20:52:07.750,804,-0.67197245,-0.6631957,-0.08766055,0.0,0.0,0.0
2026-05-10 20:52:07.760,805,-0.8345209166666666,-0.6810754066666668,-0.08392966333333333,0.0,0.0,0.0
2026-05-10 20:52:07.770,806,-0.91579515,-0.69001526,-0.08206422,0.0,0.0,0.0
2026-05-10 20:52:07.780,807,-0.91579515,-0.69001526,-0.08206422,0.0,0.0,0.0
2026-05-10 20:52:07.790,808,-0.91579515,-0.69001526,-0.08206422,0.0,0.0,0.0
2026-05-10 20:52:07.800,809,-0.91579515,-0.69001526,-0.08206422,0.0,0.0,0.0
2026-05-10 20:52:07.810,810,-0.91579515,-0.69001526,-0.08206422,0.0,0.0,0.0
2026-05-10 20:52:07.820,811,-0.91579515,-0.69001526,-0.08206422,0.0,0.0,0.0
2026-05-10 20:52:07.830,812,-0.91579515,-0.69001526,-0.08206422,0.0,0.0,0.0
2026-05-10 20:52:07.840,813,-0.91579515,-0.69001526,-0.08206422,0.0,0.0,0.0
2026-05-10 20:52:07.850,814,-0.91579515,-0.69001526,-0.08206422,0.0,0.0,0.0
2026-05-10 20:52:07.860,815,-0.91579515,-0.69001526,-0.08206422,0.0,0.0,0.0
2026-05-10 20:52:07.870,816,-0.91579515,-0.69001526,-0.08206422,0.0,0.0,0.0
2026-05-10 20:52:07.880,817,-0.91579515,-0.69001526,-0.08206422,0.0,0.0,0.0
2026-05-10 20:52:07.890,818,-0.91579515,-0.69001526,-0.08206422,0.0,0.0,0.0
2026-05-10 20:52:07.900,819,-0.91579515,-0.69001526,-0.08206422,0.0,0.0,0.0
2026-05-10 20:52:07.910,820,-0.91579515,-0.69001526,-0.08206422,0.0,0.0,0.0
2026-05-10 20:52:07.920,821,-0.91579515,-0.69001526,-0.08206422,0.0,0.0,0.0
2026-05-10 20:52:07.930,822,-0.91579515,-0.69001526,-0.08206422,0.0,0.0,0.0
2026-05-10 20:52:07.940,823,-0.91579515,-0.69001526,-0.08206422,0.0,0.0,0.0
2026-05-10 20:52:07.950,824,-0.91579515,-0.69001526,-0.08206422,0.0,0.0,0.0
2026-05-10 20:52:07.960,825,-1.4026452,-0.617737,0.09622324,0.0,0.0,0.0
2026-05-10 20:52:07.970,826,-1.4026452,-0.617737,0.09622324,0.0,0.0,0.0
2026-05-10 20:52:07.980,827,-1.4026452,-0.617737,0.09622324,0.0,0.0,0.0
2026-05-10 20:52:07.990,828,-1.4026452,-0.617737,0.09622324,0.0,0.0,0.0
2026-05-10 20:52:08.000,829,-1.3923904666666667,-0.7617431333333333,0.36568301333333336,0.0,0.0,0.0
2026-05-10 20:52:08.010,830,-1.3274924333333333,-0.8608614,0.5636136866666667,0.0,0.0,0.0
2026-05-10 20:52:08.020,831,-1.2079511,-0.9150918,0.69001526,0.0,0.0,0.0
2026-05-10 20:52:08.030,832,-1.0966361666666666,-0.8888531999999999,0.7744801266666667,0.0,0.0,0.0
2026-05-10 20:52:08.040,833,-1.0409787,-0.8757338999999998,0.81671256,0.0,0.0,0.0
2026-05-10 20:52:08.050,834,-1.0409787,-0.8757338999999998,0.81671256,0.0,0.0,0.0
2026-05-10 20:52:08.060,835,-1.1371407333333332,-0.9264321666666667,0.8149796400000001,0.0,0.0,0.0
2026-05-10 20:52:08.070,836,-1.3294648,-1.0278287,0.8115137999999998,0.0,0.0,0.0
2026-05-10 20:52:08.080,837,-1.3294648,-1.0278287,0.8115137999999998,0.0,0.0,0.0
2026-05-10 20:52:08.090,838,-1.3294648,-1.0278287,0.8115138,0.0,0.0,0.0
2026-05-10 20:52:08.100,839,-1.3294648,-1.0278287,0.8115137999999998,0.0,0.0,0.0
2026-05-10 20:52:08.110,840,-1.3294648,-1.0278287,0.8115137999999998,0.0,0.0,0.0
2026-05-10 20:52:08.120,841,-1.3294648,-1.0278287,0.8115137999999998,0.0,0.0,0.0
2026-05-10 20:52:08.130,842,-1.4412844,-1.1720642,0.9014221,0.0,0.0,0.0
2026-05-10 20:52:08.140,843,-1.4412844,-1.1720642,0.9014221,0.0,0.0,0.0
2026-05-10 20:52:08.150,844,-1.4412844,-1.1720642,0.9014221,0.0,0.0,0.0
2026-05-10 20:52:08.160,845,-1.4412844,-1.1720642,0.9014221,0.0,0.0,0.0
2026-05-10 20:52:08.170,846,-1.4412844,-1.1720642,0.9014221,0.0,0.0,0.0
2026-05-10 20:52:08.180,847,-1.4412844,-1.1720642,0.9014221,0.0,0.0,0.0
2026-05-10 20:52:08.190,848,-1.4412844,-1.1720642,0.9014221,0.0,0.0,0.0
2026-05-10 20:52:08.200,849,-1.4412844,-1.1720642,0.9014221,0.0,0.0,0.0
2026-05-10 20:52:08.210,850,-1.537691125,-1.237970225,0.7770412875,0.0,0.0,0.0
2026-05-10 20:52:08.220,851,-1.5948012,-1.2623854,0.6998012,0.0,0.0,0.0
2026-05-10 20:52:08.230,852,-1.5948012,-1.2623854,0.6998012,0.0,0.0,0.0
2026-05-10 20:52:08.240,853,-1.5948012,-1.2623854,0.6998012,0.0,0.0,0.0
2026-05-10 20:52:08.250,854,-1.5948012,-1.2623854,0.6998012,0.0,0.0,0.0
2026-05-10 20:52:08.260,855,-1.6352344333333333,-1.2959888333333334,0.6629306666666667,0.0,0.0,0.0
2026-05-10 20:52:08.270,856,-1.7161009,-1.3631957,0.5891896,0.0,0.0,0.0
2026-05-10 20:52:08.280,857,-1.7161009,-1.3631956999999997,0.5891896,0.0,0.0,0.0
2026-05-10 20:52:08.290,858,-1.7161009,-1.3631956999999997,0.5891896,0.0,0.0,0.0
2026-05-10 20:52:08.300,859,-1.7161009,-1.3631956999999997,0.5891896,0.0,0.0,0.0
2026-05-10 20:52:08.310,860,-1.7161009,-1.3631956999999997,0.5891896,0.0,0.0,0.0
2026-05-10 20:52:08.320,861,-1.7418909000000002,-1.3606473000000001,0.5872528,0.0,0.0,0.0
2026-05-10 20:52:08.330,862,-1.7934709,-1.3555505,0.5833792,0.0,0.0,0.0
2026-05-10 20:52:08.340,863,-1.7945616333333334,-1.4089654333333332,0.6132874666666667,0.0,0.0,0.0
2026-05-10 20:52:08.350,864,-1.7365903000000003,-1.4432263,0.64392966,0.0,0.0,0.0
2026-05-10 20:52:08.360,865,-1.7365903000000003,-1.4432263,0.64392966,0.0,0.0,0.0
2026-05-10 20:52:08.370,866,-1.7365903000000003,-1.4432263,0.64392966,0.0,0.0,0.0
2026-05-10 20:52:08.380,867,-1.7878338666666667,-1.4219215,0.6619724733333333,0.0,0.0,0.0
2026-05-10 20:52:08.390,868,-1.890321,-1.3793119,0.6980581,0.0,0.0,0.0
2026-05-10 20:52:08.400,869,-1.890321,-1.3793119,0.6980581,0.0,0.0,0.0
2026-05-10 20:52:08.410,870,-1.890321,-1.3793119,0.6980581,0.0,0.0,0.0
2026-05-10 20:52:08.420,871,-1.890321,-1.3793119,0.6980581,0.0,0.0,0.0
2026-05-10 20:52:08.430,872,-1.9147146666666668,-1.3782925,0.7478746066666666,0.0,0.0,0.0
2026-05-10 20:52:08.440,873,-1.9269115,-1.3777828,0.77278286,0.0,0.0,0.0
2026-05-10 20:52:08.450,874,-1.9269115,-1.3777828,0.77278286,0.0,0.0,0.0
2026-05-10 20:52:08.460,875,-1.9491336666666668,-1.3641895333333334,0.7856931733333333,0.0,0.0,0.0
2026-05-10 20:52:08.470,876,-1.993578,-1.337003,0.8115137999999998,0.0,0.0,0.0
2026-05-10 20:52:08.480,877,-1.993578,-1.337003,0.8115137999999998,0.0,0.0,0.0
2026-05-10 20:52:08.490,878,-1.993578,-1.337003,0.8115138,0.0,0.0,0.0
2026-05-10 20:52:08.500,879,-1.993578,-1.337003,0.8115137999999998,0.0,0.0,0.0
2026-05-10 20:52:08.510,880,-1.993578,-1.337003,0.8115137999999998,0.0,0.0,0.0
2026-05-10 20:52:08.520,881,-1.92474,-1.3134250666666667,0.8378848,0.0,0.0,0.0
2026-05-10 20:52:08.530,882,-1.890321,-1.3016361,0.8510703,0.0,0.0,0.0
2026-05-10 20:52:08.540,883,-1.890321,-1.3016361,0.8510703,0.0,0.0,0.0
2026-05-10 20:52:08.550,884,-1.890321,-1.3016361,0.8510703,0.0,0.0,0.0
2026-05-10 20:52:08.560,885,-1.890321,-1.3016361,0.8510703,0.0,0.0,0.0
2026-05-10 20:52:08.570,886,-1.890321,-1.3016361,0.8510703,0.0,0.0,0.0
2026-05-10 20:52:08.580,887,-1.890321,-1.3016361,0.8510703,0.0,0.0,0.0
2026-05-10 20:52:08.590,888,-1.7152907,-1.2294648,0.7732875,0.0,0.0,0.0
2026-05-10 20:52:08.600,889,-1.7152907,-1.2294648,0.7732875,0.0,0.0,0.0
2026-05-10 20:52:08.610,890,-1.7907264,-1.1961315,0.76865445,0.0,0.0,0.0
2026-05-10 20:52:08.620,891,-1.8661620999999997,-1.1627982,0.7640214,0.0,0.0,0.0
2026-05-10 20:52:08.630,892,-1.8661620999999997,-1.1627982,0.7640214,0.0,0.0,0.0
2026-05-10 20:52:08.640,893,-1.8661621,-1.1627982,0.7640214,0.0,0.0,0.0
2026-05-10 20:52:08.650,894,-1.8661620999999997,-1.1627982,0.7640214,0.0,0.0,0.0
2026-05-10 20:52:08.660,895,-1.9045565666666666,-1.1318093999999999,0.7762181333333333,0.0,0.0,0.0
2026-05-10 20:52:08.670,896,-1.9813455,-1.0698318,0.8006116,0.0,0.0,0.0
2026-05-10 20:52:08.680,897,-2.1222746,-0.84931575,0.798879985,0.0,0.0,0.0
2026-05-10 20:52:08.690,898,-2.1329613999999997,-0.8108104099999999,0.7928644333333333,0.0,0.0,0.0
2026-05-10 20:52:08.700,899,-2.135887,-0.7649388299999998,0.7847095,0.0,0.0,0.0
2026-05-10 20:52:08.710,900,-2.135887,-0.7649388299999998,0.7847095,0.0,0.0,0.0
2026-05-10 20:52:08.720,901,-2.135887,-0.76493883,0.7847095,0.0,0.0,0.0
2026-05-10 20:52:08.730,902,-2.135887,-0.7649388299999998,0.7847095,0.0,0.0,0.0
2026-05-10 20:52:08.740,903,-2.135887,-0.7649388299999998,0.7847095,0.0,0.0,0.0
2026-05-10 20:52:08.750,904,-2.135887,-0.7649388299999998,0.7847095,0.0,0.0,0.0
2026-05-10 20:52:08.760,905,-2.135887,-0.7649388299999998,0.7847095,0.0,0.0,0.0
2026-05-10 20:52:08.770,906,-2.1501886666666667,-0.7324872533333333,0.7446126666666667,0.0,0.0,0.0
2026-05-10 20:52:08.780,907,-2.178792,-0.6675841,0.664419,0.0,0.0,0.0
2026-05-10 20:52:08.790,908,-2.178792,-0.6675841,0.664419,0.0,0.0,0.0
2026-05-10 20:52:08.800,909,-2.178792,-0.6675841,0.664419,0.0,0.0,0.0
2026-05-10 20:52:08.810,910,-2.178792,-0.6675841,0.664419,0.0,0.0,0.0
2026-05-10 20:52:08.820,911,-2.178792,-0.6675841,0.664419,0.0,0.0,0.0
2026-05-10 20:52:08.830,912,-2.1295260000000003,-0.16911315333333335,0.6245310933333333,0.0,0.0,0.0
2026-05-10 20:52:08.840,913,-2.104893,0.08012232,0.60458714,0.0,0.0,0.0
2026-05-10 20:52:08.850,914,-2.104893,0.08012232,0.60458714,0.0,0.0,0.0
2026-05-10 20:52:08.860,915,-2.104893,0.08012232,0.60458714,0.0,0.0,0.0
2026-05-10 20:52:08.870,916,-2.293848233333333,-0.4386391633333333,0.4013914533333333,0.0,0.0,0.0
2026-05-10 20:52:08.880,917,-2.2957187,-0.39521407999999997,0.37665138,0.0,0.0,0.0
2026-05-10 20:52:08.890,918,-2.268425075,-0.2864984975,0.36878439,0.0,0.0,0.0
2026-05-10 20:52:08.900,919,-2.2593272,-0.25025997,0.36616206,0.0,0.0,0.0
2026-05-10 20:52:08.910,920,-2.2593272,-0.25025997,0.36616206,0.0,0.0,0.0
2026-05-10 20:52:08.920,921,-2.2268756333333335,-0.21974517666666668,0.3650050833333333,0.0,0.0,0.0
2026-05-10 20:52:08.930,922,-2.1619725,-0.15871559,0.36269113,0.0,0.0,0.0
2026-05-10 20:52:08.940,923,-2.1619725,-0.15871559,0.36269113,0.0,0.0,0.0
2026-05-10 20:52:08.950,924,-2.1619725,-0.15871559,0.36269113,0.0,0.0,0.0
2026-05-10 20:52:08.960,925,-2.1619725,-0.15871559,0.36269113,0.0,0.0,0.0
2026-05-10 20:52:08.970,926,-2.1619725,-0.15871559,0.36269113,0.0,0.0,0.0
2026-05-10 20:52:08.980,927,-1.9452599,-0.024663609,0.47328743,0.0,0.0,0.0
2026-05-10 20:52:08.990,928,-1.9452599,-0.024663609,0.47328743,0.0,0.0,0.0
2026-05-10 20:52:09.000,929,-1.9452599,-0.024663609,0.47328743,0.0,0.0,0.0
2026-05-10 20:52:09.010,930,-1.9452599,-0.024663609,0.47328743,0.0,0.0,0.0
2026-05-10 20:52:09.020,931,-1.9452599,-0.024663609,0.47328743,0.0,0.0,0.0
2026-05-10 20:52:09.030,932,-1.9452599,-0.024663609,0.47328743,0.0,0.0,0.0
2026-05-10 20:52:09.040,933,-1.9394189666666666,0.0010856263333333335,0.5309225233333333,0.0,0.0,0.0
2026-05-10 20:52:09.050,934,-1.9364985,0.013960244,0.55974007,0.0,0.0,0.0
2026-05-10 20:52:09.060,935,-1.9364985,0.013960244000000002,0.55974007,0.0,0.0,0.0
2026-05-10 20:52:09.070,936,-1.9316054999999999,0.018720693333333333,0.6206982566666667,0.0,0.0,0.0
2026-05-10 20:52:09.080,937,-1.929159,0.021100918,0.65117735,0.0,0.0,0.0
2026-05-10 20:52:09.090,938,-1.929159,0.021100918,0.65117735,0.0,0.0,0.0
2026-05-10 20:52:09.100,939,-1.9237461,0.029862385,0.66024464,0.0,0.0,0.0
2026-05-10 20:52:09.110,940,-1.9237461,0.029862385,0.66024464,0.0,0.0,0.0
2026-05-10 20:52:09.120,941,-1.9237461,0.029862385,0.66024464,0.0,0.0,0.0
2026-05-10 20:52:09.130,942,-1.9237461,0.029862385,0.66024464,0.0,0.0,0.0
2026-05-10 20:52:09.140,943,-1.9237461,0.029862385,0.66024464,0.0,0.0,0.0
2026-05-10 20:52:09.150,944,-1.9478389,0.038562691333333336,0.6576299600000001,0.0,0.0,0.0
2026-05-10 20:52:09.160,945,-1.9960245,0.055963304,0.6524006,0.0,0.0,0.0
2026-05-10 20:52:09.170,946,-2.0646331,0.04648317999999999,0.6416972,0.0,0.0,0.0
2026-05-10 20:52:09.180,947,-2.0646331,0.04648317999999999,0.6416972,0.0,0.0,0.0
2026-05-10 20:52:09.190,948,-2.0646331,0.04648317999999999,0.6416972,0.0,0.0,0.0
2026-05-10 20:52:09.200,949,-2.0646331,0.04648318,0.6416972,0.0,0.0,0.0
2026-05-10 20:52:09.210,950,-2.0646331,0.04648317999999999,0.6416972,0.0,0.0,0.0
2026-05-10 20:52:09.220,951,-2.1138990333333334,0.06911314666666667,0.5606880666666667,0.0,0.0,0.0
2026-05-10 20:52:09.230,952,-2.1355402333333333,0.07787971133333334,0.5082212166666666,0.0,0.0,0.0
2026-05-10 20:52:09.240,953,-2.1295567,0.072782874,0.48429665,0.0,0.0,0.0
2026-05-10 20:52:09.250,954,-2.1295567,0.072782874,0.48429664999999994,0.0,0.0,0.0
2026-05-10 20:52:09.260,955,-2.1295567,0.072782874,0.48429664999999994,0.0,0.0,0.0
2026-05-10 20:52:09.270,956,-2.1295567,0.072782874,0.48429664999999994,0.0,0.0,0.0
2026-05-10 20:52:09.280,957,-2.1295567,0.072782874,0.48429664999999994,0.0,0.0,0.0
2026-05-10 20:52:09.290,958,-2.1295567,0.072782874,0.48429664999999994,0.0,0.0,0.0
2026-05-10 20:52:09.300,959,-2.1295567,0.072782874,0.48429664999999994,0.0,0.0,0.0
2026-05-10 20:52:09.310,960,-2.074820425,0.0178172781,0.5024159374999999,0.0,0.0,0.0
2026-05-10 20:52:09.320,961,-2.037782866666667,-0.0019673802,0.5336035,0.0,0.0,0.0
2026-05-10 20:52:09.330,962,-2.0001986,-0.0048929662,0.5838991,0.0,0.0,0.0
2026-05-10 20:52:09.340,963,-2.0001986,-0.0048929662,0.5838991,0.0,0.0,0.0
2026-05-10 20:52:09.350,964,-2.0001986,-0.0048929662,0.5838991,0.0,0.0,0.0
2026-05-10 20:52:09.360,965,-2.0001986,-0.0048929662,0.5838991,0.0,0.0,0.0
2026-05-10 20:52:09.370,966,-2.0001986,-0.0048929662,0.5838991,0.0,0.0,0.0
2026-05-10 20:52:09.380,967,-2.0001986,-0.0048929662,0.5838991,0.0,0.0,0.0
2026-05-10 20:52:09.390,968,-2.0001986,-0.0048929662,0.5838991,0.0,0.0,0.0
2026-05-10 20:52:09.400,969,-2.0001986,-0.0048929662,0.5838991,0.0,0.0,0.0
2026-05-10 20:52:09.410,970,-2.0001986,-0.0048929662,0.5838991,0.0,0.0,0.0
2026-05-10 20:52:09.420,971,-2.027400625,-0.1608830175,0.6248508749999999,0.0,0.0,0.0
2026-05-10 20:52:09.430,972,-1.9312997,-0.04373089,0.6416972,0.0,0.0,0.0
2026-05-10 20:52:09.440,973,-1.9312997,-0.04373089,0.6416972,0.0,0.0,0.0
2026-05-10 20:52:09.450,974,-1.9312997,-0.04373089,0.6416972,0.0,0.0,0.0
2026-05-10 20:52:09.460,975,-1.9312997,-0.04373089,0.6416972,0.0,0.0,0.0
2026-05-10 20:52:09.470,976,-1.8554587,-0.08746178,0.6819571999999999,0.0,0.0,0.0
2026-05-10 20:52:09.480,977,-1.8554587,-0.08746178,0.6819572,0.0,0.0,0.0
2026-05-10 20:52:09.490,978,-1.8554587,-0.08746178,0.6819571999999999,0.0,0.0,0.0
2026-05-10 20:52:09.500,979,-1.8554587,-0.08746178,0.6819571999999999,0.0,0.0,0.0
2026-05-10 20:52:09.510,980,-1.8554587,-0.08746178,0.6819571999999999,0.0,0.0,0.0
2026-05-10 20:52:09.520,981,-1.8554587,-0.08746178,0.6819571999999999,0.0,0.0,0.0
2026-05-10 20:52:09.530,982,-1.8554587,-0.08746178,0.6819571999999999,0.0,0.0,0.0
2026-05-10 20:52:09.540,983,-1.8554587,-0.08746178,0.6819572,0.0,0.0,0.0
2026-05-10 20:52:09.550,984,-1.8554587,-0.08746178,0.6819572,0.0,0.0,0.0
2026-05-10 20:52:09.560,985,-1.8554587,-0.08746178,0.6819571999999999,0.0,0.0,0.0
2026-05-10 20:52:09.570,986,-1.83919725,-0.105405205,0.68669725,0.0,0.0,0.0
2026-05-10 20:52:09.580,987,-1.8229358,-0.12334863,0.6914373,0.0,0.0,0.0
2026-05-10 20:52:09.590,988,-1.8229358,-0.12334863,0.6914373,0.0,0.0,0.0
2026-05-10 20:52:09.600,989,-1.8683282666666667,-0.21848624333333336,0.7140672800000001,0.0,0.0,0.0
2026-05-10 20:52:09.610,990,-2.2622782000000003,-0.6917380266666666,0.6090774666666667,0.0,0.0,0.0
2026-05-10 20:52:09.620,991,-2.1879663000000003,-0.65168194,0.6512232,0.0,0.0,0.0
2026-05-10 20:52:09.630,992,-2.418924666666667,-1.0549082,0.7029510266666666,0.0,0.0,0.0
2026-05-10 20:52:09.640,993,-2.4434252,-1.1032568,0.75004584,0.0,0.0,0.0
2026-05-10 20:52:09.650,994,-2.4434252,-1.1032568,0.75004584,0.0,0.0,0.0
2026-05-10 20:52:09.660,995,-2.4434252,-1.1032568,0.75004584,0.0,0.0,0.0
2026-05-10 20:52:09.670,996,-2.4434252,-1.1032568,0.75004584,0.0,0.0,0.0
2026-05-10 20:52:09.680,997,-2.4434252,-1.1032568,0.75004584,0.0,0.0,0.0
2026-05-10 20:52:09.690,998,-2.4434252,-1.1032568,0.75004584,0.0,0.0,0.0
2026-05-10 20:52:09.700,999,-2.4434252,-1.1032568,0.75004584,0.0,0.0,0.0
2026-05-10 20:52:09.710,1000,-2.4434252,-1.1032568,0.75004584,0.0,0.0,0.0
